condition,subject,session,cycle,trial,test,stimulus,category,response,dangerous,nutricious,correct,cumulative,RT,motivation,competence,communication,complement
1,1,1,1,1,0,11001.jpg,1,3,0,0,0,-100,13475,1,1,1.5,1
1,1,1,1,2,0,00000.jpg,1,1,0,0,1,0,16153,1,1,1.5,1
1,1,1,1,3,0,10101.jpg,3,3,1,0,1,100,7515,1,1,1.5,1
1,1,1,1,4,0,01011.jpg,2,2,0,1,1,200,3768,1,1,1.5,1
1,1,1,1,5,0,11011.jpg,2,4,0,1,0,100,7377,1,1,1.5,1
1,1,1,1,6,0,00011.jpg,2,2,0,1,1,200,9747,1,1,1.5,1
1,1,1,1,7,0,11111.jpg,4,2,1,1,0,100,12758,1,1,1.5,1
1,1,1,1,8,0,10000.jpg,1,3,0,0,0,0,25646,1,1,1.5,1
1,1,1,1,9,0,01001.jpg,1,1,0,0,1,100,3109,1,1,1.5,1
1,1,1,1,10,0,00000.jpg,1,1,0,0,1,200,10906,1,1,1.5,1
1,1,1,1,11,0,11011.jpg,2,2,0,1,1,300,30238,1,1,1.5,1
1,1,1,1,12,0,11111.jpg,4,4,1,1,1,400,6421,1,1,1.5,1
1,1,1,1,13,0,10011.jpg,2,2,0,1,1,500,4029,1,1,1.5,1
1,1,1,1,14,0,00111.jpg,2,2,0,1,1,600,52619,1,1,1.5,1
1,1,1,1,15,0,10000.jpg,1,1,0,0,1,700,8004,1,1,1.5,1
1,1,1,1,16,0,00110.jpg,2,2,0,1,1,800,8948,1,1,1.5,1
1,1,1,1,17,0,01001.jpg,1,1,0,0,1,900,34334,1,1,1.5,1
1,1,1,1,18,0,10101.jpg,3,3,1,0,1,1000,8673,1,1,1.5,1
1,1,1,1,19,0,01111.jpg,2,2,0,1,1,1100,22833,1,1,1.5,1
1,1,1,1,20,0,10111.jpg,4,4,1,1,1,1200,5943,1,1,1.5,1
1,1,1,1,21,0,01011.jpg,2,2,0,1,1,1300,10305,1,1,1.5,1
1,1,1,1,22,0,00001.jpg,1,1,0,0,1,1400,9030,1,1,1.5,1
1,1,1,1,23,0,01111.jpg,2,2,0,1,1,1500,11110,1,1,1.5,1
1,1,1,1,24,0,01101.jpg,1,1,0,0,1,1600,22177,1,1,1.5,1
1,1,1,1,25,0,00010.jpg,2,2,0,1,1,1700,16332,1,1,1.5,1
1,1,1,1,26,0,10100.jpg,3,3,1,0,1,1800,5319,1,1,1.5,1
1,1,1,1,27,0,11101.jpg,3,3,1,0,1,1900,6723,1,1,1.5,1
1,1,1,1,28,0,10010.jpg,2,4,0,1,0,1800,12768,1,1,1.5,1
1,1,1,1,29,0,10110.jpg,4,4,1,1,1,1900,7259,1,1,1.5,1
1,1,1,1,30,0,00101.jpg,1,3,0,0,0,1800,44840,1,1,1.5,1
1,1,1,1,31,0,10001.jpg,1,3,0,0,0,1700,13414,1,1,1.5,1
1,1,1,1,32,0,10010.jpg,2,2,0,1,1,1800,42877,1,1,1.5,1
1,1,1,2,33,0,01010.jpg,2,2,0,1,1,1900,10539,1,1,1.5,1
1,1,1,2,34,0,01110.jpg,2,2,0,1,1,2000,5567,1,1,1.5,1
1,1,1,2,35,0,00101.jpg,1,1,0,0,1,2100,46999,1,1,1.5,1
1,1,1,2,36,0,11010.jpg,2,2,0,1,1,2200,37312,1,1,1.5,1
1,1,1,2,37,0,00100.jpg,1,1,0,0,1,2300,15005,1,1,1.5,1
1,1,1,2,38,0,11101.jpg,3,3,1,0,1,2400,15214,1,1,1.5,1
1,1,1,2,39,0,00000.jpg,1,1,0,0,1,2500,21813,1,1,1.5,1
1,1,1,2,40,0,00100.jpg,1,1,0,0,1,2600,25438,1,1,1.5,1
1,1,1,2,41,0,10010.jpg,2,4,0,1,0,2500,14541,1,1,1.5,1
1,1,1,2,42,0,00111.jpg,2,4,0,1,0,2400,7722,1,1,1.5,1
1,1,1,2,43,0,00101.jpg,1,1,0,0,1,2500,38381,1,1,1.5,1
1,1,1,2,44,0,10100.jpg,3,1,1,0,0,2400,31455,1,1,1.5,1
1,1,1,2,45,0,10100.jpg,3,3,1,0,1,2500,6405,1,1,1.5,1
1,1,1,2,46,0,01100.jpg,1,1,0,0,1,2600,36877,1,1,1.5,1
1,1,1,2,47,0,01100.jpg,1,1,0,0,1,2700,5699,1,1,1.5,1
1,1,1,2,48,0,10111.jpg,4,4,1,1,1,2800,9880,1,1,1.5,1
1,1,1,2,49,0,11010.jpg,2,2,0,1,1,2900,75830,1,1,1.5,1
1,1,1,2,50,0,11110.jpg,4,4,1,1,1,3000,31964,1,1,1.5,1
1,1,1,2,51,0,01000.jpg,1,1,0,0,1,3100,32932,1,1,1.5,1
1,1,1,2,52,0,00001.jpg,1,1,0,0,1,3200,4097,1,1,1.5,1
1,1,1,2,53,0,00011.jpg,2,2,0,1,1,3300,10310,1,1,1.5,1
1,1,1,2,54,0,01000.jpg,1,1,0,0,1,3400,3698,1,1,1.5,1
1,1,1,2,55,0,10101.jpg,3,4,1,0,0,3300,23840,1,1,1.5,1
1,1,1,2,56,0,11011.jpg,2,4,0,1,0,3200,30631,1,1,1.5,1
1,1,1,2,57,0,01010.jpg,2,2,0,1,1,3300,17157,1,1,1.5,1
1,1,1,2,58,0,01011.jpg,2,2,0,1,1,3400,45104,1,1,1.5,1
1,1,1,2,59,0,10110.jpg,4,4,1,1,1,3500,7564,1,1,1.5,1
1,1,1,2,60,0,11110.jpg,4,4,1,1,1,3600,9542,1,1,1.5,1
1,1,1,2,61,0,11010.jpg,2,4,0,1,0,3500,22472,1,1,1.5,1
1,1,1,2,62,0,10001.jpg,1,3,0,0,0,3400,54069,1,1,1.5,1
1,1,1,2,63,0,00110.jpg,2,2,0,1,1,3500,60659,1,1,1.5,1
1,1,1,2,64,0,01111.jpg,2,2,0,1,1,3600,17657,1,1,1.5,1
1,1,1,3,65,0,10011.jpg,2,2,0,1,1,3700,20814,1,1,1.5,1
1,1,1,3,66,0,01010.jpg,2,2,0,1,1,3800,18495,1,1,1.5,1
1,1,1,3,67,0,11100.jpg,3,3,1,0,1,3900,12403,1,1,1.5,1
1,1,1,3,68,0,10111.jpg,4,4,1,1,1,4000,4996,1,1,1.5,1
1,1,1,3,69,0,01000.jpg,1,1,0,0,1,4100,4204,1,1,1.5,1
1,1,1,3,70,0,01110.jpg,2,2,0,1,1,4200,4941,1,1,1.5,1
1,1,1,3,71,0,01110.jpg,2,2,0,1,1,4300,3336,1,1,1.5,1
1,1,1,3,72,0,11000.jpg,1,1,0,0,1,4400,5723,1,1,1.5,1
1,1,1,3,73,0,00010.jpg,2,2,0,1,1,4500,5319,1,1,1.5,1
1,1,1,3,74,0,11110.jpg,4,4,1,1,1,4600,5435,1,1,1.5,1
1,1,1,3,75,0,01001.jpg,1,1,0,0,1,4700,3034,1,1,1.5,1
1,1,1,3,76,0,00001.jpg,1,1,0,0,1,4800,5330,1,1,1.5,1
1,1,1,3,77,0,01101.jpg,1,1,0,0,1,4900,2829,1,1,1.5,1
1,1,1,3,78,0,10001.jpg,1,1,0,0,1,5000,7957,1,1,1.5,1
1,1,1,3,79,0,00100.jpg,1,1,0,0,1,5100,6078,1,1,1.5,1
1,1,1,3,80,0,11100.jpg,3,3,1,0,1,5200,5030,1,1,1.5,1
1,1,1,3,81,0,00111.jpg,2,2,0,1,1,5300,5037,1,1,1.5,1
1,1,1,3,82,0,00011.jpg,2,2,0,1,1,5400,3428,1,1,1.5,1
1,1,1,3,83,0,11101.jpg,3,3,1,0,1,5500,3563,1,1,1.5,1
1,1,1,3,84,0,11000.jpg,1,1,0,0,1,5600,3782,1,1,1.5,1
1,1,1,3,85,0,01100.jpg,1,1,0,0,1,5700,2465,1,1,1.5,1
1,1,1,3,86,0,10110.jpg,4,4,1,1,1,5800,3423,1,1,1.5,1
1,1,1,3,87,0,10000.jpg,1,1,0,0,1,5900,4750,1,1,1.5,1
1,1,1,3,88,0,00110.jpg,2,2,0,1,1,6000,3448,1,1,1.5,1
1,1,1,3,89,0,01101.jpg,1,1,0,0,1,6100,4320,1,1,1.5,1
1,1,1,3,90,0,10011.jpg,2,2,0,1,1,6200,3380,1,1,1.5,1
1,1,1,3,91,0,11000.jpg,1,1,0,0,1,6300,2901,1,1,1.5,1
1,1,1,3,92,0,11100.jpg,3,3,1,0,1,6400,2809,1,1,1.5,1
1,1,1,3,93,0,00010.jpg,2,2,0,1,1,6500,4154,1,1,1.5,1
1,1,1,3,94,0,11001.jpg,1,1,0,0,1,6600,3542,1,1,1.5,1
1,1,1,3,95,0,11001.jpg,1,1,0,0,1,6700,3097,1,1,1.5,1
1,1,1,3,96,0,11111.jpg,4,4,1,1,1,6800,4790,1,1,1.5,1
1,1,1,0,97,1,11110pt.jpg,4,3,1,1,0,6800,8667,1,1,1.5,1
1,1,1,0,98,1,00101pt.jpg,1,2,0,0,0,6800,13103,1,1,1.5,1
1,1,1,0,99,1,00111pt.jpg,2,1,0,1,0,6800,45687,1,1,1.5,1
1,1,1,0,100,1,11111pt.jpg,4,1,1,1,0,6800,57337,1,1,1.5,1
1,1,1,0,101,1,11011pt.jpg,2,1,0,1,0,6800,76137,1,1,1.5,1
1,1,1,0,102,1,01000pt.jpg,1,2,0,0,0,6800,77833,1,1,1.5,1
1,1,1,0,103,1,01010pt.jpg,2,2,0,1,1,6800,83886,1,1,1.5,1
1,1,1,0,104,1,10101pt.jpg,3,3,1,0,1,6800,72423,1,1,1.5,1
1,1,2,1,1,0,01010.jpg,3,2,1,0,0,-100,23571,1,1,1.5,1
1,1,2,1,2,0,00110.jpg,3,2,1,0,0,-200,51062,1,1,1.5,1
1,1,2,1,3,0,10110.jpg,4,4,1,1,1,-100,16388,1,1,1.5,1
1,1,2,1,4,0,11100.jpg,2,1,0,1,0,-200,13220,1,1,1.5,1
1,1,2,1,5,0,00010.jpg,3,3,1,0,1,-100,29532,1,1,1.5,1
1,1,2,1,6,0,11000.jpg,2,2,0,1,1,0,34159,1,1,1.5,1
1,1,2,1,7,0,11001.jpg,2,2,0,1,1,100,15562,1,1,1.5,1
1,1,2,1,8,0,11001.jpg,2,2,0,1,1,200,5332,1,1,1.5,1
1,1,2,1,9,0,01111.jpg,4,1,1,1,0,100,20383,1,1,1.5,1
1,1,2,1,10,0,10011.jpg,3,2,1,0,0,0,108246,1,1,1.5,1
1,1,2,1,11,0,01101.jpg,2,3,0,1,0,-100,76723,1,1,1.5,1
1,1,2,1,12,0,10110.jpg,4,2,1,1,0,-200,110135,1,1,1.5,1
1,1,2,1,13,0,01000.jpg,1,1,0,0,1,-100,10728,1,1,1.5,1
1,1,2,1,14,0,11010.jpg,4,2,1,1,0,-200,12845,1,1,1.5,1
1,1,2,1,15,0,00110.jpg,3,2,1,0,0,-300,69785,1,1,1.5,1
1,1,2,1,16,0,11011.jpg,4,2,1,1,0,-400,46210,1,1,1.5,1
1,1,2,1,17,0,11101.jpg,2,2,0,1,1,-300,16825,1,1,1.5,1
1,1,2,1,18,0,01011.jpg,3,3,1,0,1,-200,4879,1,1,1.5,1
1,1,2,1,19,0,01011.jpg,3,3,1,0,1,-100,15302,1,1,1.5,1
1,1,2,1,20,0,00001.jpg,1,1,0,0,1,0,12475,1,1,1.5,1
1,1,2,1,21,0,00101.jpg,1,1,0,0,1,100,22497,1,1,1.5,1
1,1,2,1,22,0,00011.jpg,3,3,1,0,1,200,3238,1,1,1.5,1
1,1,2,1,23,0,01000.jpg,1,1,0,0,1,300,2222,1,1,1.5,1
1,1,2,1,24,0,10111.jpg,4,4,1,1,1,400,3038,1,1,1.5,1
1,1,2,1,25,0,00110.jpg,3,3,1,0,1,500,4364,1,1,1.5,1
1,1,2,1,26,0,00100.jpg,1,1,0,0,1,600,5910,1,1,1.5,1
1,1,2,1,27,0,10010.jpg,3,4,1,0,0,500,7164,1,1,1.5,1
1,1,2,1,28,0,10000.jpg,1,2,0,0,0,400,79701,1,1,1.5,1
1,1,2,1,29,0,11010.jpg,4,4,1,1,1,500,8937,1,1,1.5,1
1,1,2,1,30,0,10100.jpg,2,1,0,1,0,400,8691,1,1,1.5,1
1,1,2,1,31,0,11011.jpg,4,4,1,1,1,500,23961,1,1,1.5,1
1,1,2,1,32,0,11110.jpg,4,4,1,1,1,600,51009,1,1,1.5,1
1,1,2,2,33,0,00010.jpg,3,3,1,0,1,700,12465,1,1,1.5,1
1,1,2,2,34,0,00000.jpg,1,1,0,0,1,800,4495,1,1,1.5,1
1,1,2,2,35,0,10011.jpg,3,3,1,0,1,900,9485,1,1,1.5,1
1,1,2,2,36,0,10101.jpg,2,1,0,1,0,800,30019,1,1,1.5,1
1,1,2,2,37,0,00100.jpg,1,1,0,0,1,900,33075,1,1,1.5,1
1,1,2,2,38,0,11110.jpg,4,4,1,1,1,1000,8857,1,1,1.5,1
1,1,2,2,39,0,10111.jpg,4,4,1,1,1,1100,28829,1,1,1.5,1
1,1,2,2,40,0,01010.jpg,3,3,1,0,1,1200,9636,1,1,1.5,1
1,1,2,2,41,0,01110.jpg,4,3,1,1,0,1100,6052,1,1,1.5,1
1,1,2,2,42,0,11100.jpg,2,2,0,1,1,1200,42280,1,1,1.5,1
1,1,2,2,43,0,11000.jpg,2,2,0,1,1,1300,8430,1,1,1.5,1
1,1,2,2,44,0,00101.jpg,1,1,0,0,1,1400,57966,1,1,1.5,1
1,1,2,2,45,0,01111.jpg,4,3,1,1,0,1300,3143,1,1,1.5,1
1,1,2,2,46,0,11000.jpg,2,2,0,1,1,1400,7249,1,1,1.5,1
1,1,2,2,47,0,10000.jpg,1,1,0,0,1,1500,7671,1,1,1.5,1
1,1,2,2,48,0,11111.jpg,4,4,1,1,1,1600,4814,1,1,1.5,1
1,1,2,2,49,0,11010.jpg,4,4,1,1,1,1700,4188,1,1,1.5,1
1,1,2,2,50,0,01100.jpg,2,2,0,1,1,1800,5917,1,1,1.5,1
1,1,2,2,51,0,00011.jpg,3,3,1,0,1,1900,3784,1,1,1.5,1
1,1,2,2,52,0,11111.jpg,4,4,1,1,1,2000,3914,1,1,1.5,1
1,1,2,2,53,0,01101.jpg,2,2,0,1,1,2100,3382,1,1,1.5,1
1,1,2,2,54,0,11110.jpg,4,4,1,1,1,2200,2126,1,1,1.5,1
1,1,2,2,55,0,00111.jpg,3,3,1,0,1,2300,3666,1,1,1.5,1
1,1,2,2,56,0,10101.jpg,2,2,0,1,1,2400,3032,1,1,1.5,1
1,1,2,2,57,0,00010.jpg,3,3,1,0,1,2500,2479,1,1,1.5,1
1,1,2,2,58,0,10100.jpg,2,2,0,1,1,2600,1942,1,1,1.5,1
1,1,2,2,59,0,01001.jpg,1,1,0,0,1,2700,2609,1,1,1.5,1
1,1,2,2,60,0,00100.jpg,1,1,0,0,1,2800,2137,1,1,1.5,1
1,1,2,2,61,0,01001.jpg,1,1,0,0,1,2900,1493,1,1,1.5,1
1,1,2,2,62,0,11101.jpg,2,2,0,1,1,3000,3377,1,1,1.5,1
1,1,2,2,63,0,01000.jpg,1,1,0,0,1,3100,2259,1,1,1.5,1
1,1,2,2,64,0,11111.jpg,4,4,1,1,1,3200,2866,1,1,1.5,1
1,1,2,3,65,0,10001.jpg,1,1,0,0,1,3300,4519,1,1,1.5,1
1,1,2,3,66,0,00001.jpg,1,1,0,0,1,3400,2059,1,1,1.5,1
1,1,2,3,67,0,01101.jpg,2,2,0,1,1,3500,2858,1,1,1.5,1
1,1,2,3,68,0,10001.jpg,1,1,0,0,1,3600,2896,1,1,1.5,1
1,1,2,3,69,0,10000.jpg,1,1,0,0,1,3700,1822,1,1,1.5,1
1,1,2,3,70,0,10011.jpg,3,3,1,0,1,3800,2702,1,1,1.5,1
1,1,2,3,71,0,01010.jpg,3,3,1,0,1,3900,3875,1,1,1.5,1
1,1,2,3,72,0,00111.jpg,3,3,1,0,1,4000,2545,1,1,1.5,1
1,1,2,3,73,0,10010.jpg,3,3,1,0,1,4100,2389,1,1,1.5,1
1,1,2,3,74,0,10101.jpg,2,2,0,1,1,4200,3527,1,1,1.5,1
1,1,2,3,75,0,01100.jpg,2,2,0,1,1,4300,2010,1,1,1.5,1
1,1,2,3,76,0,01110.jpg,4,4,1,1,1,4400,6139,1,1,1.5,1
1,1,2,3,77,0,00101.jpg,1,1,0,0,1,4500,2724,1,1,1.5,1
1,1,2,3,78,0,11101.jpg,2,2,0,1,1,4600,4449,1,1,1.5,1
1,1,2,3,79,0,11011.jpg,4,4,1,1,1,4700,2615,1,1,1.5,1
1,1,2,3,80,0,11001.jpg,2,2,0,1,1,4800,1934,1,1,1.5,1
1,1,2,3,81,0,10100.jpg,2,2,0,1,1,4900,3218,1,1,1.5,1
1,1,2,3,82,0,01011.jpg,3,3,1,0,1,5000,2801,1,1,1.5,1
1,1,2,3,83,0,01100.jpg,2,2,0,1,1,5100,2435,1,1,1.5,1
1,1,2,3,84,0,01110.jpg,4,4,1,1,1,5200,2810,1,1,1.5,1
1,1,2,3,85,0,00111.jpg,3,3,1,0,1,5300,2895,1,1,1.5,1
1,1,2,3,86,0,01001.jpg,1,1,0,0,1,5400,3206,1,1,1.5,1
1,1,2,3,87,0,10110.jpg,4,4,1,1,1,5500,3181,1,1,1.5,1
1,1,2,3,88,0,00000.jpg,1,1,0,0,1,5600,3294,1,1,1.5,1
1,1,2,3,89,0,00000.jpg,1,1,0,0,1,5700,1794,1,1,1.5,1
1,1,2,3,90,0,00001.jpg,1,1,0,0,1,5800,1396,1,1,1.5,1
1,1,2,3,91,0,10010.jpg,3,3,1,0,1,5900,4414,1,1,1.5,1
1,1,2,3,92,0,00011.jpg,3,3,1,0,1,6000,1821,1,1,1.5,1
1,1,2,3,93,0,10001.jpg,1,1,0,0,1,6100,4255,1,1,1.5,1
1,1,2,3,94,0,10111.jpg,4,4,1,1,1,6200,4382,1,1,1.5,1
1,1,2,3,95,0,01111.jpg,4,4,1,1,1,6300,5174,1,1,1.5,1
1,1,2,3,96,0,11100.jpg,2,2,0,1,1,6400,5615,1,1,1.5,1
1,1,2,0,97,1,10101pt.jpg,2,2,0,1,1,6400,5615,1,1,1.5,1
1,1,2,0,98,1,11110pt.jpg,4,4,1,1,1,6400,5615,1,1,1.5,1
1,1,2,0,99,1,11011pt.jpg,4,4,1,1,1,6400,5615,1,1,1.5,1
1,1,2,0,100,1,01000pt.jpg,1,1,0,0,1,6400,5615,1,1,1.5,1
1,1,2,0,101,1,11111pt.jpg,4,4,1,1,1,6400,5615,1,1,1.5,1
1,1,2,0,102,1,00101pt.jpg,1,1,0,0,1,6400,5615,1,1,1.5,1
1,1,2,0,103,1,01010pt.jpg,3,3,1,0,1,6400,5615,1,1,1.5,1
1,1,2,0,104,1,00111pt.jpg,3,3,1,0,1,6400,5615,1,1,1.5,1
1,1,3,1,1,0,01101.jpg,2,1,0,1,0,-100,33737,1,1,1.5,1
1,1,3,1,2,0,10100.jpg,1,3,0,0,0,-200,13180,1,1,1.5,1
1,1,3,1,3,0,10100.jpg,1,1,0,0,1,-100,4142,1,1,1.5,1
1,1,3,1,4,0,00110.jpg,1,2,0,0,0,-200,40488,1,1,1.5,1
1,1,3,1,5,0,00000.jpg,1,2,0,0,0,-300,36548,1,1,1.5,1
1,1,3,1,6,0,11000.jpg,1,3,0,0,0,-400,14287,1,1,1.5,1
1,1,3,1,7,0,11011.jpg,4,3,1,1,0,-500,18661,1,1,1.5,1
1,1,3,1,8,0,10000.jpg,1,1,0,0,1,-400,48134,1,1,1.5,1
1,1,3,1,9,0,10010.jpg,1,3,0,0,0,-500,18259,1,1,1.5,1
1,1,3,1,10,0,00011.jpg,3,4,1,0,0,-600,16737,1,1,1.5,1
1,1,3,1,11,0,10011.jpg,3,3,1,0,1,-500,31539,1,1,1.5,1
1,1,3,1,12,0,11111.jpg,4,4,1,1,1,-400,23815,1,1,1.5,1
1,1,3,1,13,0,01100.jpg,2,1,0,1,0,-500,13790,1,1,1.5,1
1,1,3,1,14,0,01110.jpg,2,2,0,1,1,-400,7087,1,1,1.5,1
1,1,3,1,15,0,01010.jpg,1,1,0,0,1,-300,6333,1,1,1.5,1
1,1,3,1,16,0,01110.jpg,2,2,0,1,1,-200,3321,1,1,1.5,1
1,1,3,1,17,0,01100.jpg,2,2,0,1,1,-100,1820,1,1,1.5,1
1,1,3,1,18,0,01001.jpg,1,3,0,0,0,-200,3565,1,1,1.5,1
1,1,3,1,19,0,01001.jpg,1,1,0,0,1,-100,7582,1,1,1.5,1
1,1,3,1,20,0,01000.jpg,1,1,0,0,1,0,4017,1,1,1.5,1
1,1,3,1,21,0,10011.jpg,3,3,1,0,1,100,19873,1,1,1.5,1
1,1,3,1,22,0,00101.jpg,1,2,0,0,0,0,18536,1,1,1.5,1
1,1,3,1,23,0,11101.jpg,2,4,0,1,0,-100,26715,1,1,1.5,1
1,1,3,1,24,0,00111.jpg,3,1,1,0,0,-200,12694,1,1,1.5,1
1,1,3,1,25,0,11011.jpg,4,1,1,1,0,-300,13259,1,1,1.5,1
1,1,3,1,26,0,11110.jpg,2,2,0,1,1,-200,13216,1,1,1.5,1
1,1,3,1,27,0,01010.jpg,1,1,0,0,1,-100,15816,1,1,1.5,1
1,1,3,1,28,0,11101.jpg,2,1,0,1,0,-200,27288,1,1,1.5,1
1,1,3,1,29,0,11100.jpg,2,2,0,1,1,-100,61891,1,1,1.5,1
1,1,3,1,30,0,10101.jpg,2,1,0,1,0,-200,10018,1,1,1.5,1
1,1,3,1,31,0,00010.jpg,1,1,0,0,1,-100,42770,1,1,1.5,1
1,1,3,1,32,0,10101.jpg,2,2,0,1,1,0,5539,1,1,1.5,1
1,1,3,2,33,0,11001.jpg,2,2,0,1,1,100,3040,1,1,1.5,1
1,1,3,2,34,0,00101.jpg,1,1,0,0,1,200,4086,1,1,1.5,1
1,1,3,2,35,0,11000.jpg,1,2,0,0,0,100,3579,1,1,1.5,1
1,1,3,2,36,0,01101.jpg,2,2,0,1,1,200,8492,1,1,1.5,1
1,1,3,2,37,0,10001.jpg,1,1,0,0,1,300,4538,1,1,1.5,1
1,1,3,2,38,0,00001.jpg,1,1,0,0,1,400,5821,1,1,1.5,1
1,1,3,2,39,0,11010.jpg,2,3,0,1,0,300,21677,1,1,1.5,1
1,1,3,2,40,0,00011.jpg,3,1,1,0,0,200,16322,1,1,1.5,1
1,1,3,2,41,0,01101.jpg,2,2,0,1,1,300,14382,1,1,1.5,1
1,1,3,2,42,0,01111.jpg,4,2,1,1,0,200,4782,1,1,1.5,1
1,1,3,2,43,0,11110.jpg,2,2,0,1,1,300,13630,1,1,1.5,1
1,1,3,2,44,0,11100.jpg,2,2,0,1,1,400,4423,1,1,1.5,1
1,1,3,2,45,0,01111.jpg,4,4,1,1,1,500,8237,1,1,1.5,1
1,1,3,2,46,0,00110.jpg,1,3,0,0,0,400,26996,1,1,1.5,1
1,1,3,2,47,0,00100.jpg,1,1,0,0,1,500,6004,1,1,1.5,1
1,1,3,2,48,0,10010.jpg,1,1,0,0,1,600,4637,1,1,1.5,1
1,1,3,2,49,0,10011.jpg,3,1,1,0,0,500,2525,1,1,1.5,1
1,1,3,2,50,0,11111.jpg,4,4,1,1,1,600,7519,1,1,1.5,1
1,1,3,2,51,0,00000.jpg,1,1,0,0,1,700,11346,1,1,1.5,1
1,1,3,2,52,0,00101.jpg,1,1,0,0,1,800,8405,1,1,1.5,1
1,1,3,2,53,0,00100.jpg,1,1,0,0,1,900,5949,1,1,1.5,1
1,1,3,2,54,0,01111.jpg,4,4,1,1,1,1000,4009,1,1,1.5,1
1,1,3,2,55,0,10100.jpg,1,2,0,0,0,900,17481,1,1,1.5,1
1,1,3,2,56,0,00011.jpg,3,3,1,0,1,1000,10213,1,1,1.5,1
1,1,3,2,57,0,00111.jpg,3,3,1,0,1,1100,3677,1,1,1.5,1
1,1,3,2,58,0,11010.jpg,2,2,0,1,1,1200,7435,1,1,1.5,1
1,1,3,2,59,0,01011.jpg,3,3,1,0,1,1300,8698,1,1,1.5,1
1,1,3,2,60,0,00110.jpg,1,1,0,0,1,1400,3968,1,1,1.5,1
1,1,3,2,61,0,00010.jpg,1,1,0,0,1,1500,2483,1,1,1.5,1
1,1,3,2,62,0,00001.jpg,1,1,0,0,1,1600,6191,1,1,1.5,1
1,1,3,2,63,0,01110.jpg,2,2,0,1,1,1700,5560,1,1,1.5,1
1,1,3,2,64,0,10010.jpg,1,1,0,0,1,1800,3534,1,1,1.5,1
1,1,3,3,65,0,10101.jpg,2,1,0,1,0,1700,5930,1,1,1.5,1
1,1,3,3,66,0,11101.jpg,2,2,0,1,1,1800,4773,1,1,1.5,1
1,1,3,3,67,0,01000.jpg,1,1,0,0,1,1900,9335,1,1,1.5,1
1,1,3,3,68,0,11011.jpg,4,4,1,1,1,2000,4948,1,1,1.5,1
1,1,3,3,69,0,01001.jpg,1,1,0,0,1,2100,12092,1,1,1.5,1
1,1,3,3,70,0,00111.jpg,3,3,1,0,1,2200,2843,1,1,1.5,1
1,1,3,3,71,0,10111.jpg,4,3,1,1,0,2100,7825,1,1,1.5,1
1,1,3,3,72,0,10000.jpg,1,1,0,0,1,2200,13279,1,1,1.5,1
1,1,3,3,73,0,11001.jpg,2,2,0,1,1,2300,5877,1,1,1.5,1
1,1,3,3,74,0,10000.jpg,1,1,0,0,1,2400,6698,1,1,1.5,1
1,1,3,3,75,0,00001.jpg,1,1,0,0,1,2500,2944,1,1,1.5,1
1,1,3,3,76,0,10110.jpg,2,2,0,1,1,2600,14596,1,1,1.5,1
1,1,3,3,77,0,11000.jpg,1,2,0,0,0,2500,8853,1,1,1.5,1
1,1,3,3,78,0,10111.jpg,4,4,1,1,1,2600,11073,1,1,1.5,1
1,1,3,3,79,0,01011.jpg,3,3,1,0,1,2700,4911,1,1,1.5,1
1,1,3,3,80,0,01000.jpg,1,1,0,0,1,2800,1723,1,1,1.5,1
1,1,3,3,81,0,00000.jpg,1,1,0,0,1,2900,1815,1,1,1.5,1
1,1,3,3,82,0,00100.jpg,1,1,0,0,1,3000,3384,1,1,1.5,1
1,1,3,3,83,0,10111.jpg,4,4,1,1,1,3100,3658,1,1,1.5,1
1,1,3,3,84,0,10110.jpg,2,2,0,1,1,3200,4433,1,1,1.5,1
1,1,3,3,85,0,01100.jpg,2,2,0,1,1,3300,7534,1,1,1.5,1
1,1,3,3,86,0,11010.jpg,2,2,0,1,1,3400,6177,1,1,1.5,1
1,1,3,3,87,0,01011.jpg,3,3,1,0,1,3500,2739,1,1,1.5,1
1,1,3,3,88,0,01010.jpg,1,1,0,0,1,3600,2609,1,1,1.5,1
1,1,3,3,89,0,00010.jpg,1,1,0,0,1,3700,3960,1,1,1.5,1
1,1,3,3,90,0,10001.jpg,1,1,0,0,1,3800,3923,1,1,1.5,1
1,1,3,3,91,0,11111.jpg,4,4,1,1,1,3900,2974,1,1,1.5,1
1,1,3,3,92,0,11110.jpg,2,2,0,1,1,4000,3279,1,1,1.5,1
1,1,3,3,93,0,11100.jpg,2,2,0,1,1,4100,3197,1,1,1.5,1
1,1,3,3,94,0,10001.jpg,1,1,0,0,1,4200,3709,1,1,1.5,1
1,1,3,3,95,0,11001.jpg,2,1,0,1,0,4100,2266,1,1,1.5,1
1,1,3,3,96,0,10110.jpg,2,2,0,1,1,4200,3360,1,1,1.5,1
1,1,3,0,97,1,01010pt.jpg,1,1,0,0,1,4200,3360,1,1,1.5,1
1,1,3,0,98,1,11110pt.jpg,2,2,0,1,1,4200,3360,1,1,1.5,1
1,1,3,0,99,1,10101pt.jpg,2,2,0,1,1,4200,3360,1,1,1.5,1
1,1,3,0,100,1,11111pt.jpg,4,4,1,1,1,4200,3360,1,1,1.5,1
1,1,3,0,101,1,01000pt.jpg,1,1,0,0,1,4200,3360,1,1,1.5,1
1,1,3,0,102,1,00101pt.jpg,1,1,0,0,1,4200,3360,1,1,1.5,1
1,1,3,0,103,1,11011pt.jpg,4,4,1,1,1,4200,3360,1,1,1.5,1
1,1,3,0,104,1,00111pt.jpg,3,3,1,0,1,4200,3360,1,1,1.5,1
1,2,1,1,1,0,01010.jpg,2,4,0,1,0,-100,27156,3,3.5,2.5,1.5
1,2,1,1,2,0,10011.jpg,2,3,0,1,0,-200,5453,3,3.5,2.5,1.5
1,2,1,1,3,0,01101.jpg,1,1,0,0,1,-100,33397,3,3.5,2.5,1.5
1,2,1,1,4,0,00100.jpg,1,2,0,0,0,-200,21412,3,3.5,2.5,1.5
1,2,1,1,5,0,10110.jpg,4,3,1,1,0,-300,15765,3,3.5,2.5,1.5
1,2,1,1,6,0,10101.jpg,3,3,1,0,1,-200,19214,3,3.5,2.5,1.5
1,2,1,1,7,0,01011.jpg,2,2,0,1,1,-100,7039,3,3.5,2.5,1.5
1,2,1,1,8,0,00001.jpg,1,1,0,0,1,0,6684,3,3.5,2.5,1.5
1,2,1,1,9,0,11101.jpg,3,3,1,0,1,100,21299,3,3.5,2.5,1.5
1,2,1,1,10,0,01100.jpg,1,1,0,0,1,200,12264,3,3.5,2.5,1.5
1,2,1,1,11,0,10101.jpg,3,3,1,0,1,300,4678,3,3.5,2.5,1.5
1,2,1,1,12,0,11001.jpg,1,3,0,0,0,200,21052,3,3.5,2.5,1.5
1,2,1,1,13,0,11111.jpg,4,4,1,1,1,300,14002,3,3.5,2.5,1.5
1,2,1,1,14,0,10100.jpg,3,3,1,0,1,400,5313,3,3.5,2.5,1.5
1,2,1,1,15,0,00011.jpg,2,2,0,1,1,500,5830,3,3.5,2.5,1.5
1,2,1,1,16,0,11110.jpg,4,4,1,1,1,600,8973,3,3.5,2.5,1.5
1,2,1,1,17,0,11100.jpg,3,3,1,0,1,700,6935,3,3.5,2.5,1.5
1,2,1,1,18,0,00010.jpg,2,2,0,1,1,800,4433,3,3.5,2.5,1.5
1,2,1,1,19,0,00101.jpg,1,1,0,0,1,900,30385,3,3.5,2.5,1.5
1,2,1,1,20,0,00100.jpg,1,1,0,0,1,1000,18594,3,3.5,2.5,1.5
1,2,1,1,21,0,01000.jpg,1,1,0,0,1,1100,16004,3,3.5,2.5,1.5
1,2,1,1,22,0,01000.jpg,1,1,0,0,1,1200,3955,3,3.5,2.5,1.5
1,2,1,1,23,0,01011.jpg,2,2,0,1,1,1300,3526,3,3.5,2.5,1.5
1,2,1,1,24,0,10101.jpg,3,3,1,0,1,1400,7273,3,3.5,2.5,1.5
1,2,1,1,25,0,00000.jpg,1,1,0,0,1,1500,7616,3,3.5,2.5,1.5
1,2,1,1,26,0,01100.jpg,1,1,0,0,1,1600,6216,3,3.5,2.5,1.5
1,2,1,1,27,0,01101.jpg,1,1,0,0,1,1700,2978,3,3.5,2.5,1.5
1,2,1,1,28,0,10000.jpg,1,3,0,0,0,1600,29042,3,3.5,2.5,1.5
1,2,1,1,29,0,10100.jpg,3,3,1,0,1,1700,8568,3,3.5,2.5,1.5
1,2,1,1,30,0,00110.jpg,2,2,0,1,1,1800,12020,3,3.5,2.5,1.5
1,2,1,1,31,0,11100.jpg,3,3,1,0,1,1900,5052,3,3.5,2.5,1.5
1,2,1,1,32,0,11110.jpg,4,4,1,1,1,2000,11563,3,3.5,2.5,1.5
1,2,1,2,33,0,10010.jpg,2,4,0,1,0,1900,24781,3,3.5,2.5,1.5
1,2,1,2,34,0,11110.jpg,4,2,1,1,0,1800,3510,3,3.5,2.5,1.5
1,2,1,2,35,0,01010.jpg,2,2,0,1,1,1900,3537,3,3.5,2.5,1.5
1,2,1,2,36,0,11000.jpg,1,1,0,0,1,2000,5396,3,3.5,2.5,1.5
1,2,1,2,37,0,10010.jpg,2,2,0,1,1,2100,6709,3,3.5,2.5,1.5
1,2,1,2,38,0,00000.jpg,1,1,0,0,1,2200,6521,3,3.5,2.5,1.5
1,2,1,2,39,0,11010.jpg,2,2,0,1,1,2300,4237,3,3.5,2.5,1.5
1,2,1,2,40,0,10011.jpg,2,2,0,1,1,2400,6324,3,3.5,2.5,1.5
1,2,1,2,41,0,00111.jpg,2,2,0,1,1,2500,3689,3,3.5,2.5,1.5
1,2,1,2,42,0,01111.jpg,2,2,0,1,1,2600,2877,3,3.5,2.5,1.5
1,2,1,2,43,0,11100.jpg,3,3,1,0,1,2700,5683,3,3.5,2.5,1.5
1,2,1,2,44,0,01000.jpg,1,1,0,0,1,2800,4057,3,3.5,2.5,1.5
1,2,1,2,45,0,00011.jpg,2,2,0,1,1,2900,2744,3,3.5,2.5,1.5
1,2,1,2,46,0,01001.jpg,1,1,0,0,1,3000,2627,3,3.5,2.5,1.5
1,2,1,2,47,0,11010.jpg,2,2,0,1,1,3100,3442,3,3.5,2.5,1.5
1,2,1,2,48,0,11101.jpg,3,3,1,0,1,3200,4387,3,3.5,2.5,1.5
1,2,1,2,49,0,00010.jpg,2,2,0,1,1,3300,2283,3,3.5,2.5,1.5
1,2,1,2,50,0,01001.jpg,1,1,0,0,1,3400,4128,3,3.5,2.5,1.5
1,2,1,2,51,0,11000.jpg,1,1,0,0,1,3500,5245,3,3.5,2.5,1.5
1,2,1,2,52,0,11011.jpg,2,2,0,1,1,3600,2764,3,3.5,2.5,1.5
1,2,1,2,53,0,10000.jpg,1,1,0,0,1,3700,3655,3,3.5,2.5,1.5
1,2,1,2,54,0,10111.jpg,4,4,1,1,1,3800,7373,3,3.5,2.5,1.5
1,2,1,2,55,0,01111.jpg,2,2,0,1,1,3900,3134,3,3.5,2.5,1.5
1,2,1,2,56,0,11101.jpg,3,3,1,0,1,4000,2657,3,3.5,2.5,1.5
1,2,1,2,57,0,11011.jpg,2,2,0,1,1,4100,2975,3,3.5,2.5,1.5
1,2,1,2,58,0,10011.jpg,2,2,0,1,1,4200,2546,3,3.5,2.5,1.5
1,2,1,2,59,0,10110.jpg,4,4,1,1,1,4300,3108,3,3.5,2.5,1.5
1,2,1,2,60,0,11010.jpg,2,2,0,1,1,4400,1759,3,3.5,2.5,1.5
1,2,1,2,61,0,11001.jpg,1,1,0,0,1,4500,8283,3,3.5,2.5,1.5
1,2,1,2,62,0,01011.jpg,2,2,0,1,1,4600,2191,3,3.5,2.5,1.5
1,2,1,2,63,0,01101.jpg,1,1,0,0,1,4700,3066,3,3.5,2.5,1.5
1,2,1,2,64,0,01110.jpg,2,2,0,1,1,4800,3430,3,3.5,2.5,1.5
1,2,1,3,65,0,00000.jpg,1,1,0,0,1,4900,5767,3,3.5,2.5,1.5
1,2,1,3,66,0,10000.jpg,1,1,0,0,1,5000,2944,3,3.5,2.5,1.5
1,2,1,3,67,0,01110.jpg,2,2,0,1,1,5100,2364,3,3.5,2.5,1.5
1,2,1,3,68,0,10110.jpg,4,4,1,1,1,5200,2959,3,3.5,2.5,1.5
1,2,1,3,69,0,10001.jpg,1,1,0,0,1,5300,2687,3,3.5,2.5,1.5
1,2,1,3,70,0,00110.jpg,2,2,0,1,1,5400,2269,3,3.5,2.5,1.5
1,2,1,3,71,0,10001.jpg,1,1,0,0,1,5500,2363,3,3.5,2.5,1.5
1,2,1,3,72,0,01010.jpg,2,2,0,1,1,5600,2669,3,3.5,2.5,1.5
1,2,1,3,73,0,01110.jpg,2,2,0,1,1,5700,1499,3,3.5,2.5,1.5
1,2,1,3,74,0,10001.jpg,1,1,0,0,1,5800,3056,3,3.5,2.5,1.5
1,2,1,3,75,0,11011.jpg,2,2,0,1,1,5900,2726,3,3.5,2.5,1.5
1,2,1,3,76,0,00010.jpg,2,2,0,1,1,6000,2707,3,3.5,2.5,1.5
1,2,1,3,77,0,00011.jpg,2,2,0,1,1,6100,1664,3,3.5,2.5,1.5
1,2,1,3,78,0,00101.jpg,1,1,0,0,1,6200,2709,3,3.5,2.5,1.5
1,2,1,3,79,0,00110.jpg,2,2,0,1,1,6300,1610,3,3.5,2.5,1.5
1,2,1,3,80,0,00111.jpg,2,2,0,1,1,6400,1714,3,3.5,2.5,1.5
1,2,1,3,81,0,11001.jpg,1,1,0,0,1,6500,2694,3,3.5,2.5,1.5
1,2,1,3,82,0,10111.jpg,4,4,1,1,1,6600,3803,3,3.5,2.5,1.5
1,2,1,3,83,0,00001.jpg,1,1,0,0,1,6700,1980,3,3.5,2.5,1.5
1,2,1,3,84,0,01100.jpg,1,1,0,0,1,6800,2461,3,3.5,2.5,1.5
1,2,1,3,85,0,00100.jpg,1,1,0,0,1,6900,3683,3,3.5,2.5,1.5
1,2,1,3,86,0,01111.jpg,2,2,0,1,1,7000,3762,3,3.5,2.5,1.5
1,2,1,3,87,0,10100.jpg,3,3,1,0,1,7100,6251,3,3.5,2.5,1.5
1,2,1,3,88,0,00001.jpg,1,1,0,0,1,7200,2668,3,3.5,2.5,1.5
1,2,1,3,89,0,00111.jpg,2,2,0,1,1,7300,3801,3,3.5,2.5,1.5
1,2,1,3,90,0,01001.jpg,1,1,0,0,1,7400,1978,3,3.5,2.5,1.5
1,2,1,3,91,0,10010.jpg,2,2,0,1,1,7500,3197,3,3.5,2.5,1.5
1,2,1,3,92,0,11111.jpg,4,4,1,1,1,7600,2860,3,3.5,2.5,1.5
1,2,1,3,93,0,00101.jpg,1,1,0,0,1,7700,2274,3,3.5,2.5,1.5
1,2,1,3,94,0,11000.jpg,1,1,0,0,1,7800,3215,3,3.5,2.5,1.5
1,2,1,3,95,0,11111.jpg,4,4,1,1,1,7900,3432,3,3.5,2.5,1.5
1,2,1,3,96,0,10111.jpg,4,4,1,1,1,8000,3400,3,3.5,2.5,1.5
1,2,1,0,97,1,10101pt.jpg,3,4,1,0,0,8000,8896,3,3.5,2.5,1.5
1,2,1,0,98,1,11011pt.jpg,2,1,0,1,0,8000,16627,3,3.5,2.5,1.5
1,2,1,0,99,1,00111pt.jpg,2,1,0,1,0,8000,28175,3,3.5,2.5,1.5
1,2,1,0,100,1,00101pt.jpg,1,1,0,0,1,8000,29750,3,3.5,2.5,1.5
1,2,1,0,101,1,01000pt.jpg,1,1,0,0,1,8000,19245,3,3.5,2.5,1.5
1,2,1,0,102,1,11110pt.jpg,4,3,1,1,0,8000,7993,3,3.5,2.5,1.5
1,2,1,0,103,1,01010pt.jpg,2,2,0,1,1,8000,40319,3,3.5,2.5,1.5
1,2,1,0,104,1,11111pt.jpg,4,4,1,1,1,8000,5393,3,3.5,2.5,1.5
1,2,2,1,1,0,10111.jpg,4,4,1,1,1,100,13010,3,3.5,2.5,1.5
1,2,2,1,2,0,10100.jpg,2,3,0,1,0,0,3930,3,3.5,2.5,1.5
1,2,2,1,3,0,00010.jpg,3,2,1,0,0,-100,4613,3,3.5,2.5,1.5
1,2,2,1,4,0,10101.jpg,2,3,0,1,0,-200,15958,3,3.5,2.5,1.5
1,2,2,1,5,0,10110.jpg,4,4,1,1,1,-100,11384,3,3.5,2.5,1.5
1,2,2,1,6,0,11000.jpg,2,1,0,1,0,-200,9737,3,3.5,2.5,1.5
1,2,2,1,7,0,00011.jpg,3,2,1,0,0,-300,4108,3,3.5,2.5,1.5
1,2,2,1,8,0,00111.jpg,3,4,1,0,0,-400,23368,3,3.5,2.5,1.5
1,2,2,1,9,0,11001.jpg,2,3,0,1,0,-500,47937,3,3.5,2.5,1.5
1,2,2,1,10,0,10110.jpg,4,3,1,1,0,-600,15677,3,3.5,2.5,1.5
1,2,2,1,11,0,01001.jpg,1,1,0,0,1,-500,8896,3,3.5,2.5,1.5
1,2,2,1,12,0,00111.jpg,3,4,1,0,0,-600,45270,3,3.5,2.5,1.5
1,2,2,1,13,0,10001.jpg,1,3,0,0,0,-700,17155,3,3.5,2.5,1.5
1,2,2,1,14,0,11111.jpg,4,4,1,1,1,-600,27389,3,3.5,2.5,1.5
1,2,2,1,15,0,11000.jpg,2,2,0,1,1,-500,47837,3,3.5,2.5,1.5
1,2,2,1,16,0,10111.jpg,4,4,1,1,1,-400,24187,3,3.5,2.5,1.5
1,2,2,1,17,0,00100.jpg,1,1,0,0,1,-300,7156,3,3.5,2.5,1.5
1,2,2,1,18,0,01100.jpg,2,2,0,1,1,-200,11439,3,3.5,2.5,1.5
1,2,2,1,19,0,00011.jpg,3,2,1,0,0,-300,36949,3,3.5,2.5,1.5
1,2,2,1,20,0,10011.jpg,3,3,1,0,1,-200,13343,3,3.5,2.5,1.5
1,2,2,1,21,0,01101.jpg,2,2,0,1,1,-100,17995,3,3.5,2.5,1.5
1,2,2,1,22,0,11101.jpg,2,4,0,1,0,-200,8970,3,3.5,2.5,1.5
1,2,2,1,23,0,01111.jpg,4,2,1,1,0,-300,15389,3,3.5,2.5,1.5
1,2,2,1,24,0,11110.jpg,4,4,1,1,1,-200,9148,3,3.5,2.5,1.5
1,2,2,1,25,0,01011.jpg,3,4,1,0,0,-300,14022,3,3.5,2.5,1.5
1,2,2,1,26,0,11010.jpg,4,3,1,1,0,-400,15973,3,3.5,2.5,1.5
1,2,2,1,27,0,10100.jpg,2,1,0,1,0,-500,49772,3,3.5,2.5,1.5
1,2,2,1,28,0,01101.jpg,2,2,0,1,1,-400,19430,3,3.5,2.5,1.5
1,2,2,1,29,0,01000.jpg,1,2,0,0,0,-500,6221,3,3.5,2.5,1.5
1,2,2,1,30,0,11111.jpg,4,4,1,1,1,-400,54740,3,3.5,2.5,1.5
1,2,2,1,31,0,01010.jpg,3,2,1,0,0,-500,33662,3,3.5,2.5,1.5
1,2,2,1,32,0,01000.jpg,1,2,0,0,0,-600,6003,3,3.5,2.5,1.5
1,2,2,2,33,0,10010.jpg,3,3,1,0,1,-500,25021,3,3.5,2.5,1.5
1,2,2,2,34,0,10001.jpg,1,3,0,0,0,-600,8756,3,3.5,2.5,1.5
1,2,2,2,35,0,00010.jpg,3,3,1,0,1,-500,39247,3,3.5,2.5,1.5
1,2,2,2,36,0,11100.jpg,2,2,0,1,1,-400,12374,3,3.5,2.5,1.5
1,2,2,2,37,0,10000.jpg,1,1,0,0,1,-300,16536,3,3.5,2.5,1.5
1,2,2,2,38,0,00001.jpg,1,1,0,0,1,-200,7482,3,3.5,2.5,1.5
1,2,2,2,39,0,01011.jpg,3,1,1,0,0,-300,57425,3,3.5,2.5,1.5
1,2,2,2,40,0,00101.jpg,1,2,0,0,0,-400,17240,3,3.5,2.5,1.5
1,2,2,2,41,0,01001.jpg,1,2,0,0,0,-500,30590,3,3.5,2.5,1.5
1,2,2,2,42,0,10100.jpg,2,4,0,1,0,-600,34910,3,3.5,2.5,1.5
1,2,2,2,43,0,11011.jpg,4,3,1,1,0,-700,6771,3,3.5,2.5,1.5
1,2,2,2,44,0,11011.jpg,4,3,1,1,0,-800,45065,3,3.5,2.5,1.5
1,2,2,2,45,0,10111.jpg,4,3,1,1,0,-900,25486,3,3.5,2.5,1.5
1,2,2,2,46,0,00001.jpg,1,1,0,0,1,-800,37929,3,3.5,2.5,1.5
1,2,2,2,47,0,00001.jpg,1,1,0,0,1,-700,2637,3,3.5,2.5,1.5
1,2,2,2,48,0,01110.jpg,4,3,1,1,0,-800,32268,3,3.5,2.5,1.5
1,2,2,2,49,0,01011.jpg,3,2,1,0,0,-900,57112,3,3.5,2.5,1.5
1,2,2,2,50,0,01110.jpg,4,4,1,1,1,-800,19036,3,3.5,2.5,1.5
1,2,2,2,51,0,11100.jpg,2,2,0,1,1,-700,22562,3,3.5,2.5,1.5
1,2,2,2,52,0,11001.jpg,2,1,0,1,0,-800,26892,3,3.5,2.5,1.5
1,2,2,2,53,0,10101.jpg,2,3,0,1,0,-900,28906,3,3.5,2.5,1.5
1,2,2,2,54,0,10010.jpg,3,3,1,0,1,-800,5326,3,3.5,2.5,1.5
1,2,2,2,55,0,00101.jpg,1,2,0,0,0,-900,30410,3,3.5,2.5,1.5
1,2,2,2,56,0,00010.jpg,3,3,1,0,1,-800,9603,3,3.5,2.5,1.5
1,2,2,2,57,0,01101.jpg,2,2,0,1,1,-700,4411,3,3.5,2.5,1.5
1,2,2,2,58,0,01110.jpg,4,4,1,1,1,-600,9100,3,3.5,2.5,1.5
1,2,2,2,59,0,11000.jpg,2,2,0,1,1,-500,9305,3,3.5,2.5,1.5
1,2,2,2,60,0,01100.jpg,2,2,0,1,1,-400,3420,3,3.5,2.5,1.5
1,2,2,2,61,0,10011.jpg,3,3,1,0,1,-300,3726,3,3.5,2.5,1.5
1,2,2,2,62,0,01111.jpg,4,4,1,1,1,-200,4641,3,3.5,2.5,1.5
1,2,2,2,63,0,00100.jpg,1,1,0,0,1,-100,8983,3,3.5,2.5,1.5
1,2,2,2,64,0,10001.jpg,1,1,0,0,1,0,6872,3,3.5,2.5,1.5
1,2,2,3,65,0,01000.jpg,1,2,0,0,0,-100,5991,3,3.5,2.5,1.5
1,2,2,3,66,0,01010.jpg,3,3,1,0,1,0,24302,3,3.5,2.5,1.5
1,2,2,3,67,0,10010.jpg,3,3,1,0,1,100,6268,3,3.5,2.5,1.5
1,2,2,3,68,0,10000.jpg,1,1,0,0,1,200,8451,3,3.5,2.5,1.5
1,2,2,3,69,0,11101.jpg,2,2,0,1,1,300,5433,3,3.5,2.5,1.5
1,2,2,3,70,0,11001.jpg,2,2,0,1,1,400,6194,3,3.5,2.5,1.5
1,2,2,3,71,0,01001.jpg,1,1,0,0,1,500,5842,3,3.5,2.5,1.5
1,2,2,3,72,0,01100.jpg,2,2,0,1,1,600,8962,3,3.5,2.5,1.5
1,2,2,3,73,0,01111.jpg,4,4,1,1,1,700,4244,3,3.5,2.5,1.5
1,2,2,3,74,0,11010.jpg,4,4,1,1,1,800,5706,3,3.5,2.5,1.5
1,2,2,3,75,0,01010.jpg,3,3,1,0,1,900,7878,3,3.5,2.5,1.5
1,2,2,3,76,0,00100.jpg,1,1,0,0,1,1000,7275,3,3.5,2.5,1.5
1,2,2,3,77,0,11110.jpg,4,4,1,1,1,1100,14042,3,3.5,2.5,1.5
1,2,2,3,78,0,10101.jpg,2,1,0,1,0,1000,6984,3,3.5,2.5,1.5
1,2,2,3,79,0,00011.jpg,3,3,1,0,1,1100,8056,3,3.5,2.5,1.5
1,2,2,3,80,0,11100.jpg,2,2,0,1,1,1200,4096,3,3.5,2.5,1.5
1,2,2,3,81,0,11110.jpg,4,4,1,1,1,1300,5132,3,3.5,2.5,1.5
1,2,2,3,82,0,00000.jpg,1,1,0,0,1,1400,7776,3,3.5,2.5,1.5
1,2,2,3,83,0,10000.jpg,1,1,0,0,1,1500,5769,3,3.5,2.5,1.5
1,2,2,3,84,0,10110.jpg,4,4,1,1,1,1600,5730,3,3.5,2.5,1.5
1,2,2,3,85,0,11111.jpg,4,4,1,1,1,1700,2723,3,3.5,2.5,1.5
1,2,2,3,86,0,11101.jpg,2,2,0,1,1,1800,7478,3,3.5,2.5,1.5
1,2,2,3,87,0,00101.jpg,1,1,0,0,1,1900,4939,3,3.5,2.5,1.5
1,2,2,3,88,0,00110.jpg,3,3,1,0,1,2000,4942,3,3.5,2.5,1.5
1,2,2,3,89,0,00110.jpg,3,3,1,0,1,2100,2290,3,3.5,2.5,1.5
1,2,2,3,90,0,00111.jpg,3,3,1,0,1,2200,2489,3,3.5,2.5,1.5
1,2,2,3,91,0,11011.jpg,4,4,1,1,1,2300,6198,3,3.5,2.5,1.5
1,2,2,3,92,0,00000.jpg,1,1,0,0,1,2400,4998,3,3.5,2.5,1.5
1,2,2,3,93,0,00000.jpg,1,1,0,0,1,2500,2503,3,3.5,2.5,1.5
1,2,2,3,94,0,00110.jpg,3,3,1,0,1,2600,10268,3,3.5,2.5,1.5
1,2,2,3,95,0,11010.jpg,4,4,1,1,1,2700,3154,3,3.5,2.5,1.5
1,2,2,3,96,0,10011.jpg,3,3,1,0,1,2800,5404,3,3.5,2.5,1.5
1,2,2,0,97,1,00101pt.jpg,1,2,0,0,0,2800,5404,3,3.5,2.5,1.5
1,2,2,0,98,1,01010pt.jpg,3,2,1,0,0,2800,5404,3,3.5,2.5,1.5
1,2,2,0,99,1,01000pt.jpg,1,3,0,0,0,2800,5404,3,3.5,2.5,1.5
1,2,2,0,100,1,11111pt.jpg,4,2,1,1,0,2800,5404,3,3.5,2.5,1.5
1,2,2,0,101,1,11110pt.jpg,4,4,1,1,1,2800,5404,3,3.5,2.5,1.5
1,2,2,0,102,1,10101pt.jpg,2,2,0,1,1,2800,5404,3,3.5,2.5,1.5
1,2,2,0,103,1,11011pt.jpg,4,3,1,1,0,2800,5404,3,3.5,2.5,1.5
1,2,2,0,104,1,00111pt.jpg,3,4,1,0,0,2800,5404,3,3.5,2.5,1.5
1,2,3,1,1,0,00001.jpg,1,1,0,0,1,100,23296,3,3.5,2.5,1.5
1,2,3,1,2,0,00100.jpg,1,3,0,0,0,0,10005,3,3.5,2.5,1.5
1,2,3,1,3,0,11110.jpg,2,3,0,1,0,-100,4150,3,3.5,2.5,1.5
1,2,3,1,4,0,00010.jpg,1,2,0,0,0,-200,30927,3,3.5,2.5,1.5
1,2,3,1,5,0,01000.jpg,1,1,0,0,1,-100,5867,3,3.5,2.5,1.5
1,2,3,1,6,0,10110.jpg,2,2,0,1,1,0,19289,3,3.5,2.5,1.5
1,2,3,1,7,0,11000.jpg,1,1,0,0,1,100,9175,3,3.5,2.5,1.5
1,2,3,1,8,0,10101.jpg,2,3,0,1,0,0,6433,3,3.5,2.5,1.5
1,2,3,1,9,0,11101.jpg,2,3,0,1,0,-100,18151,3,3.5,2.5,1.5
1,2,3,1,10,0,00101.jpg,1,1,0,0,1,0,10939,3,3.5,2.5,1.5
1,2,3,1,11,0,00010.jpg,1,4,0,0,0,-100,32165,3,3.5,2.5,1.5
1,2,3,1,12,0,01011.jpg,3,1,1,0,0,-200,7383,3,3.5,2.5,1.5
1,2,3,1,13,0,10011.jpg,3,4,1,0,0,-300,36656,3,3.5,2.5,1.5
1,2,3,1,14,0,00111.jpg,3,4,1,0,0,-400,24982,3,3.5,2.5,1.5
1,2,3,1,15,0,10111.jpg,4,4,1,1,1,-300,27384,3,3.5,2.5,1.5
1,2,3,1,16,0,11101.jpg,2,2,0,1,1,-200,21207,3,3.5,2.5,1.5
1,2,3,1,17,0,01110.jpg,2,2,0,1,1,-100,33176,3,3.5,2.5,1.5
1,2,3,1,18,0,11100.jpg,2,2,0,1,1,0,28097,3,3.5,2.5,1.5
1,2,3,1,19,0,11010.jpg,2,3,0,1,0,-100,27350,3,3.5,2.5,1.5
1,2,3,1,20,0,11011.jpg,4,2,1,1,0,-200,3985,3,3.5,2.5,1.5
1,2,3,1,21,0,11111.jpg,4,4,1,1,1,-100,31401,3,3.5,2.5,1.5
1,2,3,1,22,0,11010.jpg,2,2,0,1,1,0,12297,3,3.5,2.5,1.5
1,2,3,1,23,0,11000.jpg,1,1,0,0,1,100,11533,3,3.5,2.5,1.5
1,2,3,1,24,0,01010.jpg,1,1,0,0,1,200,19970,3,3.5,2.5,1.5
1,2,3,1,25,0,11101.jpg,2,3,0,1,0,100,13147,3,3.5,2.5,1.5
1,2,3,1,26,0,10110.jpg,2,2,0,1,1,200,18742,3,3.5,2.5,1.5
1,2,3,1,27,0,10010.jpg,1,2,0,0,0,100,6153,3,3.5,2.5,1.5
1,2,3,1,28,0,11000.jpg,1,1,0,0,1,200,11235,3,3.5,2.5,1.5
1,2,3,1,29,0,10000.jpg,1,1,0,0,1,300,5851,3,3.5,2.5,1.5
1,2,3,1,30,0,00110.jpg,1,2,0,0,0,200,11667,3,3.5,2.5,1.5
1,2,3,1,31,0,00011.jpg,3,3,1,0,1,300,19784,3,3.5,2.5,1.5
1,2,3,1,32,0,00000.jpg,1,1,0,0,1,400,9658,3,3.5,2.5,1.5
1,2,3,2,33,0,11110.jpg,2,2,0,1,1,500,6401,3,3.5,2.5,1.5
1,2,3,2,34,0,00001.jpg,1,1,0,0,1,600,5874,3,3.5,2.5,1.5
1,2,3,2,35,0,01010.jpg,1,2,0,0,0,500,7918,3,3.5,2.5,1.5
1,2,3,2,36,0,11001.jpg,2,3,0,1,0,400,9106,3,3.5,2.5,1.5
1,2,3,2,37,0,01100.jpg,2,2,0,1,1,500,13735,3,3.5,2.5,1.5
1,2,3,2,38,0,00000.jpg,1,1,0,0,1,600,3427,3,3.5,2.5,1.5
1,2,3,2,39,0,10001.jpg,1,2,0,0,0,500,14899,3,3.5,2.5,1.5
1,2,3,2,40,0,01110.jpg,2,2,0,1,1,600,3975,3,3.5,2.5,1.5
1,2,3,2,41,0,01001.jpg,1,1,0,0,1,700,4794,3,3.5,2.5,1.5
1,2,3,2,42,0,01000.jpg,1,1,0,0,1,800,2611,3,3.5,2.5,1.5
1,2,3,2,43,0,01101.jpg,2,4,0,1,0,700,6044,3,3.5,2.5,1.5
1,2,3,2,44,0,11111.jpg,4,4,1,1,1,800,4027,3,3.5,2.5,1.5
1,2,3,2,45,0,11111.jpg,4,4,1,1,1,900,2321,3,3.5,2.5,1.5
1,2,3,2,46,0,00000.jpg,1,1,0,0,1,1000,3340,3,3.5,2.5,1.5
1,2,3,2,47,0,01111.jpg,4,2,1,1,0,900,6007,3,3.5,2.5,1.5
1,2,3,2,48,0,10111.jpg,4,4,1,1,1,1000,2159,3,3.5,2.5,1.5
1,2,3,2,49,0,01001.jpg,1,1,0,0,1,1100,3736,3,3.5,2.5,1.5
1,2,3,2,50,0,00100.jpg,1,2,0,0,0,1000,6507,3,3.5,2.5,1.5
1,2,3,2,51,0,01101.jpg,2,1,0,1,0,900,8288,3,3.5,2.5,1.5
1,2,3,2,52,0,11010.jpg,2,2,0,1,1,1000,11397,3,3.5,2.5,1.5
1,2,3,2,53,0,00011.jpg,3,3,1,0,1,1100,13262,3,3.5,2.5,1.5
1,2,3,2,54,0,01011.jpg,3,4,1,0,0,1000,19675,3,3.5,2.5,1.5
1,2,3,2,55,0,10000.jpg,1,1,0,0,1,1100,4345,3,3.5,2.5,1.5
1,2,3,2,56,0,00110.jpg,1,2,0,0,0,1000,5612,3,3.5,2.5,1.5
1,2,3,2,57,0,00101.jpg,1,1,0,0,1,1100,7412,3,3.5,2.5,1.5
1,2,3,2,58,0,00010.jpg,1,1,0,0,1,1200,14917,3,3.5,2.5,1.5
1,2,3,2,59,0,01001.jpg,1,1,0,0,1,1300,4410,3,3.5,2.5,1.5
1,2,3,2,60,0,11001.jpg,2,1,0,1,0,1200,4026,3,3.5,2.5,1.5
1,2,3,2,61,0,01111.jpg,4,2,1,1,0,1100,26209,3,3.5,2.5,1.5
1,2,3,2,62,0,10011.jpg,3,1,1,0,0,1000,9561,3,3.5,2.5,1.5
1,2,3,2,63,0,10100.jpg,1,1,0,0,1,1100,8689,3,3.5,2.5,1.5
1,2,3,2,64,0,00101.jpg,1,1,0,0,1,1200,13814,3,3.5,2.5,1.5
1,2,3,3,65,0,10101.jpg,2,1,0,1,0,1100,14570,3,3.5,2.5,1.5
1,2,3,3,66,0,10010.jpg,1,2,0,0,0,1000,13309,3,3.5,2.5,1.5
1,2,3,3,67,0,01000.jpg,1,1,0,0,1,1100,4969,3,3.5,2.5,1.5
1,2,3,3,68,0,01111.jpg,4,2,1,1,0,1000,8244,3,3.5,2.5,1.5
1,2,3,3,69,0,00001.jpg,1,1,0,0,1,1100,14697,3,3.5,2.5,1.5
1,2,3,3,70,0,10110.jpg,2,2,0,1,1,1200,3622,3,3.5,2.5,1.5
1,2,3,3,71,0,11011.jpg,4,3,1,1,0,1100,3822,3,3.5,2.5,1.5
1,2,3,3,72,0,01100.jpg,2,1,0,1,0,1000,5755,3,3.5,2.5,1.5
1,2,3,3,73,0,00100.jpg,1,1,0,0,1,1100,2534,3,3.5,2.5,1.5
1,2,3,3,74,0,10111.jpg,4,4,1,1,1,1200,4170,3,3.5,2.5,1.5
1,2,3,3,75,0,01011.jpg,3,3,1,0,1,1300,7779,3,3.5,2.5,1.5
1,2,3,3,76,0,01110.jpg,2,2,0,1,1,1400,2979,3,3.5,2.5,1.5
1,2,3,3,77,0,11001.jpg,2,1,0,1,0,1300,3909,3,3.5,2.5,1.5
1,2,3,3,78,0,10000.jpg,1,1,0,0,1,1400,5650,3,3.5,2.5,1.5
1,2,3,3,79,0,11011.jpg,4,3,1,1,0,1300,2840,3,3.5,2.5,1.5
1,2,3,3,80,0,00111.jpg,3,3,1,0,1,1400,5334,3,3.5,2.5,1.5
1,2,3,3,81,0,11100.jpg,2,2,0,1,1,1500,10946,3,3.5,2.5,1.5
1,2,3,3,82,0,00011.jpg,3,3,1,0,1,1600,5469,3,3.5,2.5,1.5
1,2,3,3,83,0,10001.jpg,1,1,0,0,1,1700,5732,3,3.5,2.5,1.5
1,2,3,3,84,0,01100.jpg,2,1,0,1,0,1600,11222,3,3.5,2.5,1.5
1,2,3,3,85,0,11100.jpg,2,2,0,1,1,1700,5271,3,3.5,2.5,1.5
1,2,3,3,86,0,00110.jpg,1,2,0,0,0,1600,4525,3,3.5,2.5,1.5
1,2,3,3,87,0,10100.jpg,1,2,0,0,0,1500,4154,3,3.5,2.5,1.5
1,2,3,3,88,0,00111.jpg,3,3,1,0,1,1600,5018,3,3.5,2.5,1.5
1,2,3,3,89,0,10101.jpg,2,1,0,1,0,1500,14499,3,3.5,2.5,1.5
1,2,3,3,90,0,10010.jpg,1,2,0,0,0,1400,4145,3,3.5,2.5,1.5
1,2,3,3,91,0,11110.jpg,2,2,0,1,1,1500,7426,3,3.5,2.5,1.5
1,2,3,3,92,0,01010.jpg,1,1,0,0,1,1600,11795,3,3.5,2.5,1.5
1,2,3,3,93,0,10100.jpg,1,1,0,0,1,1700,5141,3,3.5,2.5,1.5
1,2,3,3,94,0,10011.jpg,3,3,1,0,1,1800,3527,3,3.5,2.5,1.5
1,2,3,3,95,0,10001.jpg,1,2,0,0,0,1700,11179,3,3.5,2.5,1.5
1,2,3,3,96,0,01101.jpg,2,2,0,1,1,1800,4316,3,3.5,2.5,1.5
1,2,3,0,97,1,10101pt.jpg,2,3,0,1,0,1800,4316,3,3.5,2.5,1.5
1,2,3,0,98,1,11111pt.jpg,4,3,1,1,0,1800,4316,3,3.5,2.5,1.5
1,2,3,0,99,1,01010pt.jpg,1,1,0,0,1,1800,4316,3,3.5,2.5,1.5
1,2,3,0,100,1,00101pt.jpg,1,1,0,0,1,1800,4316,3,3.5,2.5,1.5
1,2,3,0,101,1,11110pt.jpg,2,2,0,1,1,1800,4316,3,3.5,2.5,1.5
1,2,3,0,102,1,11011pt.jpg,4,3,1,1,0,1800,4316,3,3.5,2.5,1.5
1,2,3,0,103,1,01000pt.jpg,1,2,0,0,0,1800,4316,3,3.5,2.5,1.5
1,2,3,0,104,1,00111pt.jpg,3,3,1,0,1,1800,4316,3,3.5,2.5,1.5
1,3,1,1,1,0,11010.jpg,2,2,0,1,1,100,20309,2,2.5,3,3.5
1,3,1,1,2,0,10101.jpg,3,3,1,0,1,200,11634,2,2.5,3,3.5
1,3,1,1,3,0,01010.jpg,2,2,0,1,1,300,8626,2,2.5,3,3.5
1,3,1,1,4,0,00101.jpg,1,1,0,0,1,400,15417,2,2.5,3,3.5
1,3,1,1,5,0,00001.jpg,1,1,0,0,1,500,12657,2,2.5,3,3.5
1,3,1,1,6,0,01101.jpg,1,2,0,0,0,400,20287,2,2.5,3,3.5
1,3,1,1,7,0,10010.jpg,2,4,0,1,0,300,20956,2,2.5,3,3.5
1,3,1,1,8,0,00000.jpg,1,1,0,0,1,400,7102,2,2.5,3,3.5
1,3,1,1,9,0,11100.jpg,3,3,1,0,1,500,8611,2,2.5,3,3.5
1,3,1,1,10,0,10000.jpg,1,3,0,0,0,400,3124,2,2.5,3,3.5
1,3,1,1,11,0,01001.jpg,1,1,0,0,1,500,4198,2,2.5,3,3.5
1,3,1,1,12,0,11001.jpg,1,4,0,0,0,400,17544,2,2.5,3,3.5
1,3,1,1,13,0,00000.jpg,1,1,0,0,1,500,5505,2,2.5,3,3.5
1,3,1,1,14,0,10101.jpg,3,3,1,0,1,600,20144,2,2.5,3,3.5
1,3,1,1,15,0,01100.jpg,1,1,0,0,1,700,17905,2,2.5,3,3.5
1,3,1,1,16,0,10100.jpg,3,3,1,0,1,800,7334,2,2.5,3,3.5
1,3,1,1,17,0,01111.jpg,2,1,0,1,0,700,7866,2,2.5,3,3.5
1,3,1,1,18,0,11101.jpg,3,3,1,0,1,800,7985,2,2.5,3,3.5
1,3,1,1,19,0,01100.jpg,1,2,0,0,0,700,6018,2,2.5,3,3.5
1,3,1,1,20,0,01100.jpg,1,1,0,0,1,800,10330,2,2.5,3,3.5
1,3,1,1,21,0,00100.jpg,1,2,0,0,0,700,11230,2,2.5,3,3.5
1,3,1,1,22,0,00011.jpg,2,3,0,1,0,600,14196,2,2.5,3,3.5
1,3,1,1,23,0,10011.jpg,2,3,0,1,0,500,3603,2,2.5,3,3.5
1,3,1,1,24,0,11100.jpg,3,4,1,0,0,400,4645,2,2.5,3,3.5
1,3,1,1,25,0,00011.jpg,2,1,0,1,0,300,5915,2,2.5,3,3.5
1,3,1,1,26,0,00101.jpg,1,1,0,0,1,400,9991,2,2.5,3,3.5
1,3,1,1,27,0,10100.jpg,3,3,1,0,1,500,13152,2,2.5,3,3.5
1,3,1,1,28,0,01110.jpg,2,2,0,1,1,600,5251,2,2.5,3,3.5
1,3,1,1,29,0,00010.jpg,2,2,0,1,1,700,6426,2,2.5,3,3.5
1,3,1,1,30,0,11010.jpg,2,3,0,1,0,600,6410,2,2.5,3,3.5
1,3,1,1,31,0,10101.jpg,3,3,1,0,1,700,16362,2,2.5,3,3.5
1,3,1,1,32,0,10010.jpg,2,2,0,1,1,800,6380,2,2.5,3,3.5
1,3,1,2,33,0,01000.jpg,1,1,0,0,1,900,2631,2,2.5,3,3.5
1,3,1,2,34,0,00101.jpg,1,2,0,0,0,800,5230,2,2.5,3,3.5
1,3,1,2,35,0,00010.jpg,2,2,0,1,1,900,2853,2,2.5,3,3.5
1,3,1,2,36,0,10110.jpg,4,4,1,1,1,1000,9675,2,2.5,3,3.5
1,3,1,2,37,0,11111.jpg,4,4,1,1,1,1100,9353,2,2.5,3,3.5
1,3,1,2,38,0,01011.jpg,2,2,0,1,1,1200,6162,2,2.5,3,3.5
1,3,1,2,39,0,00100.jpg,1,1,0,0,1,1300,9252,2,2.5,3,3.5
1,3,1,2,40,0,01000.jpg,1,1,0,0,1,1400,5148,2,2.5,3,3.5
1,3,1,2,41,0,01110.jpg,2,2,0,1,1,1500,4694,2,2.5,3,3.5
1,3,1,2,42,0,00010.jpg,2,2,0,1,1,1600,3972,2,2.5,3,3.5
1,3,1,2,43,0,00110.jpg,2,4,0,1,0,1500,14388,2,2.5,3,3.5
1,3,1,2,44,0,11110.jpg,4,4,1,1,1,1600,3574,2,2.5,3,3.5
1,3,1,2,45,0,11011.jpg,2,4,0,1,0,1500,9975,2,2.5,3,3.5
1,3,1,2,46,0,10011.jpg,2,2,0,1,1,1600,3016,2,2.5,3,3.5
1,3,1,2,47,0,10110.jpg,4,4,1,1,1,1700,2488,2,2.5,3,3.5
1,3,1,2,48,0,01101.jpg,1,2,0,0,0,1600,10260,2,2.5,3,3.5
1,3,1,2,49,0,01001.jpg,1,1,0,0,1,1700,2939,2,2.5,3,3.5
1,3,1,2,50,0,00001.jpg,1,1,0,0,1,1800,3254,2,2.5,3,3.5
1,3,1,2,51,0,00100.jpg,1,2,0,0,0,1700,3716,2,2.5,3,3.5
1,3,1,2,52,0,10001.jpg,1,2,0,0,0,1600,5848,2,2.5,3,3.5
1,3,1,2,53,0,01010.jpg,2,2,0,1,1,1700,4566,2,2.5,3,3.5
1,3,1,2,54,0,10110.jpg,4,4,1,1,1,1800,3745,2,2.5,3,3.5
1,3,1,2,55,0,00110.jpg,2,2,0,1,1,1900,6810,2,2.5,3,3.5
1,3,1,2,56,0,10011.jpg,2,2,0,1,1,2000,16650,2,2.5,3,3.5
1,3,1,2,57,0,11000.jpg,1,1,0,0,1,2100,6353,2,2.5,3,3.5
1,3,1,2,58,0,01010.jpg,2,1,0,1,0,2000,8988,2,2.5,3,3.5
1,3,1,2,59,0,11011.jpg,2,2,0,1,1,2100,11445,2,2.5,3,3.5
1,3,1,2,60,0,01011.jpg,2,1,0,1,0,2000,3060,2,2.5,3,3.5
1,3,1,2,61,0,11111.jpg,4,4,1,1,1,2100,4378,2,2.5,3,3.5
1,3,1,2,62,0,10000.jpg,1,1,0,0,1,2200,5595,2,2.5,3,3.5
1,3,1,2,63,0,11110.jpg,4,4,1,1,1,2300,2692,2,2.5,3,3.5
1,3,1,2,64,0,01001.jpg,1,1,0,0,1,2400,4417,2,2.5,3,3.5
1,3,1,3,65,0,01101.jpg,1,1,0,0,1,2500,4616,2,2.5,3,3.5
1,3,1,3,66,0,00000.jpg,1,1,0,0,1,2600,5411,2,2.5,3,3.5
1,3,1,3,67,0,00011.jpg,2,1,0,1,0,2500,9410,2,2.5,3,3.5
1,3,1,3,68,0,00001.jpg,1,1,0,0,1,2600,2819,2,2.5,3,3.5
1,3,1,3,69,0,11111.jpg,4,4,1,1,1,2700,2162,2,2.5,3,3.5
1,3,1,3,70,0,00111.jpg,2,2,0,1,1,2800,6381,2,2.5,3,3.5
1,3,1,3,71,0,11001.jpg,1,3,0,0,0,2700,15381,2,2.5,3,3.5
1,3,1,3,72,0,10111.jpg,4,4,1,1,1,2800,2446,2,2.5,3,3.5
1,3,1,3,73,0,10100.jpg,3,2,1,0,0,2700,5901,2,2.5,3,3.5
1,3,1,3,74,0,11000.jpg,1,1,0,0,1,2800,4481,2,2.5,3,3.5
1,3,1,3,75,0,01000.jpg,1,1,0,0,1,2900,2447,2,2.5,3,3.5
1,3,1,3,76,0,11101.jpg,3,2,1,0,0,2800,21070,2,2.5,3,3.5
1,3,1,3,77,0,10111.jpg,4,4,1,1,1,2900,2252,2,2.5,3,3.5
1,3,1,3,78,0,11110.jpg,4,4,1,1,1,3000,1665,2,2.5,3,3.5
1,3,1,3,79,0,10001.jpg,1,1,0,0,1,3100,5183,2,2.5,3,3.5
1,3,1,3,80,0,01110.jpg,2,2,0,1,1,3200,5704,2,2.5,3,3.5
1,3,1,3,81,0,11010.jpg,2,1,0,1,0,3100,9948,2,2.5,3,3.5
1,3,1,3,82,0,10001.jpg,1,1,0,0,1,3200,5689,2,2.5,3,3.5
1,3,1,3,83,0,11011.jpg,2,3,0,1,0,3100,15941,2,2.5,3,3.5
1,3,1,3,84,0,10111.jpg,4,4,1,1,1,3200,2136,2,2.5,3,3.5
1,3,1,3,85,0,11101.jpg,3,2,1,0,0,3100,11386,2,2.5,3,3.5
1,3,1,3,86,0,10010.jpg,2,2,0,1,1,3200,4460,2,2.5,3,3.5
1,3,1,3,87,0,10000.jpg,1,2,0,0,0,3100,9434,2,2.5,3,3.5
1,3,1,3,88,0,11001.jpg,1,1,0,0,1,3200,2801,2,2.5,3,3.5
1,3,1,3,89,0,01111.jpg,2,2,0,1,1,3300,4707,2,2.5,3,3.5
1,3,1,3,90,0,01011.jpg,2,2,0,1,1,3400,2543,2,2.5,3,3.5
1,3,1,3,91,0,11100.jpg,3,3,1,0,1,3500,3971,2,2.5,3,3.5
1,3,1,3,92,0,00110.jpg,2,2,0,1,1,3600,4022,2,2.5,3,3.5
1,3,1,3,93,0,01111.jpg,2,2,0,1,1,3700,4086,2,2.5,3,3.5
1,3,1,3,94,0,11000.jpg,1,1,0,0,1,3800,5731,2,2.5,3,3.5
1,3,1,3,95,0,00111.jpg,2,2,0,1,1,3900,6359,2,2.5,3,3.5
1,3,1,3,96,0,00111.jpg,2,2,0,1,1,4000,3208,2,2.5,3,3.5
1,3,1,0,97,1,11110pt.jpg,4,4,1,1,1,4000,16211,2,2.5,3,3.5
1,3,1,0,98,1,00111pt.jpg,2,2,0,1,1,4000,10264,2,2.5,3,3.5
1,3,1,0,99,1,01000pt.jpg,1,1,0,0,1,4000,5435,2,2.5,3,3.5
1,3,1,0,100,1,10101pt.jpg,3,3,1,0,1,4000,7903,2,2.5,3,3.5
1,3,1,0,101,1,01010pt.jpg,2,1,0,1,0,4000,8826,2,2.5,3,3.5
1,3,1,0,102,1,00101pt.jpg,1,1,0,0,1,4000,6175,2,2.5,3,3.5
1,3,1,0,103,1,11011pt.jpg,2,4,0,1,0,4000,5799,2,2.5,3,3.5
1,3,1,0,104,1,11111pt.jpg,4,4,1,1,1,4000,12669,2,2.5,3,3.5
1,3,2,1,1,0,00100.jpg,1,1,0,0,1,100,12885,2,2.5,3,3.5
1,3,2,1,2,0,10110.jpg,4,4,1,1,1,200,3706,2,2.5,3,3.5
1,3,2,1,3,0,10111.jpg,4,4,1,1,1,300,3470,2,2.5,3,3.5
1,3,2,1,4,0,01010.jpg,3,2,1,0,0,200,4346,2,2.5,3,3.5
1,3,2,1,5,0,10100.jpg,2,3,0,1,0,100,9166,2,2.5,3,3.5
1,3,2,1,6,0,01001.jpg,1,1,0,0,1,200,7943,2,2.5,3,3.5
1,3,2,1,7,0,10001.jpg,1,1,0,0,1,300,7467,2,2.5,3,3.5
1,3,2,1,8,0,01110.jpg,4,2,1,1,0,200,9840,2,2.5,3,3.5
1,3,2,1,9,0,01010.jpg,3,2,1,0,0,100,6998,2,2.5,3,3.5
1,3,2,1,10,0,01010.jpg,3,3,1,0,1,200,2118,2,2.5,3,3.5
1,3,2,1,11,0,10011.jpg,3,3,1,0,1,300,2283,2,2.5,3,3.5
1,3,2,1,12,0,01101.jpg,2,2,0,1,1,400,9977,2,2.5,3,3.5
1,3,2,1,13,0,00110.jpg,3,4,1,0,0,300,5426,2,2.5,3,3.5
1,3,2,1,14,0,11101.jpg,2,3,0,1,0,200,18097,2,2.5,3,3.5
1,3,2,1,15,0,00011.jpg,3,1,1,0,0,100,17830,2,2.5,3,3.5
1,3,2,1,16,0,11111.jpg,4,4,1,1,1,200,7164,2,2.5,3,3.5
1,3,2,1,17,0,00110.jpg,3,4,1,0,0,100,3951,2,2.5,3,3.5
1,3,2,1,18,0,00010.jpg,3,4,1,0,0,0,6505,2,2.5,3,3.5
1,3,2,1,19,0,11100.jpg,2,2,0,1,1,100,22453,2,2.5,3,3.5
1,3,2,1,20,0,10101.jpg,2,2,0,1,1,200,2931,2,2.5,3,3.5
1,3,2,1,21,0,10000.jpg,1,1,0,0,1,300,3687,2,2.5,3,3.5
1,3,2,1,22,0,00111.jpg,3,3,1,0,1,400,10140,2,2.5,3,3.5
1,3,2,1,23,0,10010.jpg,3,4,1,0,0,300,8360,2,2.5,3,3.5
1,3,2,1,24,0,10110.jpg,4,4,1,1,1,400,5017,2,2.5,3,3.5
1,3,2,1,25,0,11010.jpg,4,3,1,1,0,300,3298,2,2.5,3,3.5
1,3,2,1,26,0,00101.jpg,1,1,0,0,1,400,20748,2,2.5,3,3.5
1,3,2,1,27,0,11011.jpg,4,3,1,1,0,300,4383,2,2.5,3,3.5
1,3,2,1,28,0,01011.jpg,3,4,1,0,0,200,4015,2,2.5,3,3.5
1,3,2,1,29,0,01101.jpg,2,1,0,1,0,100,7272,2,2.5,3,3.5
1,3,2,1,30,0,10100.jpg,2,2,0,1,1,200,6461,2,2.5,3,3.5
1,3,2,1,31,0,11001.jpg,2,1,0,1,0,100,13563,2,2.5,3,3.5
1,3,2,1,32,0,11000.jpg,2,2,0,1,1,200,4382,2,2.5,3,3.5
1,3,2,2,33,0,10111.jpg,4,4,1,1,1,300,10478,2,2.5,3,3.5
1,3,2,2,34,0,01100.jpg,2,1,0,1,0,200,9564,2,2.5,3,3.5
1,3,2,2,35,0,01001.jpg,1,1,0,0,1,300,4444,2,2.5,3,3.5
1,3,2,2,36,0,00111.jpg,3,3,1,0,1,400,6156,2,2.5,3,3.5
1,3,2,2,37,0,01100.jpg,2,2,0,1,1,500,3975,2,2.5,3,3.5
1,3,2,2,38,0,00101.jpg,1,2,0,0,0,400,2914,2,2.5,3,3.5
1,3,2,2,39,0,00101.jpg,1,1,0,0,1,500,2565,2,2.5,3,3.5
1,3,2,2,40,0,11010.jpg,4,3,1,1,0,400,7145,2,2.5,3,3.5
1,3,2,2,41,0,10001.jpg,1,2,0,0,0,300,10298,2,2.5,3,3.5
1,3,2,2,42,0,10010.jpg,3,4,1,0,0,200,11405,2,2.5,3,3.5
1,3,2,2,43,0,11001.jpg,2,2,0,1,1,300,4685,2,2.5,3,3.5
1,3,2,2,44,0,01111.jpg,4,3,1,1,0,200,9532,2,2.5,3,3.5
1,3,2,2,45,0,11110.jpg,4,4,1,1,1,300,4589,2,2.5,3,3.5
1,3,2,2,46,0,10000.jpg,1,2,0,0,0,200,5829,2,2.5,3,3.5
1,3,2,2,47,0,00100.jpg,1,2,0,0,0,100,12139,2,2.5,3,3.5
1,3,2,2,48,0,10101.jpg,2,2,0,1,1,200,10215,2,2.5,3,3.5
1,3,2,2,49,0,00000.jpg,1,1,0,0,1,300,6247,2,2.5,3,3.5
1,3,2,2,50,0,11000.jpg,2,1,0,1,0,200,13694,2,2.5,3,3.5
1,3,2,2,51,0,00010.jpg,3,4,1,0,0,100,17443,2,2.5,3,3.5
1,3,2,2,52,0,11011.jpg,4,3,1,1,0,0,5425,2,2.5,3,3.5
1,3,2,2,53,0,10010.jpg,3,3,1,0,1,100,5958,2,2.5,3,3.5
1,3,2,2,54,0,01011.jpg,3,4,1,0,0,0,5387,2,2.5,3,3.5
1,3,2,2,55,0,01000.jpg,1,1,0,0,1,100,11330,2,2.5,3,3.5
1,3,2,2,56,0,01101.jpg,2,2,0,1,1,200,3542,2,2.5,3,3.5
1,3,2,2,57,0,11110.jpg,4,4,1,1,1,300,3450,2,2.5,3,3.5
1,3,2,2,58,0,00100.jpg,1,2,0,0,0,200,8592,2,2.5,3,3.5
1,3,2,2,59,0,01000.jpg,1,1,0,0,1,300,2585,2,2.5,3,3.5
1,3,2,2,60,0,01100.jpg,2,1,0,1,0,200,3162,2,2.5,3,3.5
1,3,2,2,61,0,11000.jpg,2,2,0,1,1,300,7020,2,2.5,3,3.5
1,3,2,2,62,0,10101.jpg,2,2,0,1,1,400,6756,2,2.5,3,3.5
1,3,2,2,63,0,00001.jpg,1,1,0,0,1,500,2767,2,2.5,3,3.5
1,3,2,2,64,0,00111.jpg,3,4,1,0,0,400,11802,2,2.5,3,3.5
1,3,2,3,65,0,10011.jpg,3,4,1,0,0,300,8450,2,2.5,3,3.5
1,3,2,3,66,0,00011.jpg,3,3,1,0,1,400,8823,2,2.5,3,3.5
1,3,2,3,67,0,00001.jpg,1,1,0,0,1,500,2746,2,2.5,3,3.5
1,3,2,3,68,0,11100.jpg,2,2,0,1,1,600,8027,2,2.5,3,3.5
1,3,2,3,69,0,01110.jpg,4,3,1,1,0,500,8483,2,2.5,3,3.5
1,3,2,3,70,0,00001.jpg,1,1,0,0,1,600,2847,2,2.5,3,3.5
1,3,2,3,71,0,11111.jpg,4,4,1,1,1,700,4366,2,2.5,3,3.5
1,3,2,3,72,0,01001.jpg,1,1,0,0,1,800,2104,2,2.5,3,3.5
1,3,2,3,73,0,00010.jpg,3,3,1,0,1,900,3782,2,2.5,3,3.5
1,3,2,3,74,0,01110.jpg,4,3,1,1,0,800,3542,2,2.5,3,3.5
1,3,2,3,75,0,11111.jpg,4,4,1,1,1,900,6136,2,2.5,3,3.5
1,3,2,3,76,0,11100.jpg,2,2,0,1,1,1000,4505,2,2.5,3,3.5
1,3,2,3,77,0,10000.jpg,1,1,0,0,1,1100,5645,2,2.5,3,3.5
1,3,2,3,78,0,01011.jpg,3,3,1,0,1,1200,8205,2,2.5,3,3.5
1,3,2,3,79,0,00000.jpg,1,1,0,0,1,1300,2726,2,2.5,3,3.5
1,3,2,3,80,0,10110.jpg,4,4,1,1,1,1400,2218,2,2.5,3,3.5
1,3,2,3,81,0,11110.jpg,4,4,1,1,1,1500,2026,2,2.5,3,3.5
1,3,2,3,82,0,01000.jpg,1,1,0,0,1,1600,1560,2,2.5,3,3.5
1,3,2,3,83,0,01111.jpg,4,3,1,1,0,1500,3267,2,2.5,3,3.5
1,3,2,3,84,0,00110.jpg,3,3,1,0,1,1600,8686,2,2.5,3,3.5
1,3,2,3,85,0,11101.jpg,2,2,0,1,1,1700,4129,2,2.5,3,3.5
1,3,2,3,86,0,01111.jpg,4,4,1,1,1,1800,5356,2,2.5,3,3.5
1,3,2,3,87,0,10100.jpg,2,2,0,1,1,1900,2870,2,2.5,3,3.5
1,3,2,3,88,0,00011.jpg,3,3,1,0,1,2000,9203,2,2.5,3,3.5
1,3,2,3,89,0,10001.jpg,1,1,0,0,1,2100,2612,2,2.5,3,3.5
1,3,2,3,90,0,11101.jpg,2,2,0,1,1,2200,2333,2,2.5,3,3.5
1,3,2,3,91,0,00000.jpg,1,1,0,0,1,2300,1993,2,2.5,3,3.5
1,3,2,3,92,0,11011.jpg,4,4,1,1,1,2400,7898,2,2.5,3,3.5
1,3,2,3,93,0,11001.jpg,2,1,0,1,0,2300,4438,2,2.5,3,3.5
1,3,2,3,94,0,10011.jpg,3,4,1,0,0,2200,5357,2,2.5,3,3.5
1,3,2,3,95,0,11010.jpg,4,4,1,1,1,2300,2392,2,2.5,3,3.5
1,3,2,3,96,0,10111.jpg,4,4,1,1,1,2400,3551,2,2.5,3,3.5
1,3,2,0,97,1,01010pt.jpg,3,3,1,0,1,2400,3551,2,2.5,3,3.5
1,3,2,0,98,1,11011pt.jpg,4,4,1,1,1,2400,3551,2,2.5,3,3.5
1,3,2,0,99,1,01000pt.jpg,1,1,0,0,1,2400,3551,2,2.5,3,3.5
1,3,2,0,100,1,11111pt.jpg,4,4,1,1,1,2400,3551,2,2.5,3,3.5
1,3,2,0,101,1,10101pt.jpg,2,2,0,1,1,2400,3551,2,2.5,3,3.5
1,3,2,0,102,1,00111pt.jpg,3,3,1,0,1,2400,3551,2,2.5,3,3.5
1,3,2,0,103,1,11110pt.jpg,4,4,1,1,1,2400,3551,2,2.5,3,3.5
1,3,2,0,104,1,00101pt.jpg,1,2,0,0,0,2400,3551,2,2.5,3,3.5
1,3,3,1,1,0,00101.jpg,1,1,0,0,1,100,9268,2,2.5,3,3.5
1,3,3,1,2,0,10110.jpg,2,4,0,1,0,0,4178,2,2.5,3,3.5
1,3,3,1,3,0,01111.jpg,4,2,1,1,0,-100,6084,2,2.5,3,3.5
1,3,3,1,4,0,10101.jpg,2,2,0,1,1,0,7624,2,2.5,3,3.5
1,3,3,1,5,0,00000.jpg,1,1,0,0,1,100,2912,2,2.5,3,3.5
1,3,3,1,6,0,01011.jpg,3,4,1,0,0,0,8379,2,2.5,3,3.5
1,3,3,1,7,0,01101.jpg,2,1,0,1,0,-100,7797,2,2.5,3,3.5
1,3,3,1,8,0,00010.jpg,1,3,0,0,0,-200,5726,2,2.5,3,3.5
1,3,3,1,9,0,01110.jpg,2,4,0,1,0,-300,12176,2,2.5,3,3.5
1,3,3,1,10,0,00110.jpg,1,2,0,0,0,-400,4331,2,2.5,3,3.5
1,3,3,1,11,0,00111.jpg,3,2,1,0,0,-500,11310,2,2.5,3,3.5
1,3,3,1,12,0,00011.jpg,3,3,1,0,1,-400,3529,2,2.5,3,3.5
1,3,3,1,13,0,01101.jpg,2,1,0,1,0,-500,8111,2,2.5,3,3.5
1,3,3,1,14,0,10000.jpg,1,1,0,0,1,-400,15562,2,2.5,3,3.5
1,3,3,1,15,0,10010.jpg,1,4,0,0,0,-500,13189,2,2.5,3,3.5
1,3,3,1,16,0,10110.jpg,2,4,0,1,0,-600,2997,2,2.5,3,3.5
1,3,3,1,17,0,00001.jpg,1,1,0,0,1,-500,10694,2,2.5,3,3.5
1,3,3,1,18,0,01000.jpg,1,1,0,0,1,-400,2492,2,2.5,3,3.5
1,3,3,1,19,0,00100.jpg,1,2,0,0,0,-500,3585,2,2.5,3,3.5
1,3,3,1,20,0,00000.jpg,1,1,0,0,1,-400,1114,2,2.5,3,3.5
1,3,3,1,21,0,11111.jpg,4,4,1,1,1,-300,9815,2,2.5,3,3.5
1,3,3,1,22,0,00011.jpg,3,1,1,0,0,-400,8533,2,2.5,3,3.5
1,3,3,1,23,0,00001.jpg,1,1,0,0,1,-300,1962,2,2.5,3,3.5
1,3,3,1,24,0,00101.jpg,1,1,0,0,1,-200,14613,2,2.5,3,3.5
1,3,3,1,25,0,11100.jpg,2,2,0,1,1,-100,4804,2,2.5,3,3.5
1,3,3,1,26,0,10010.jpg,1,1,0,0,1,0,8214,2,2.5,3,3.5
1,3,3,1,27,0,01010.jpg,1,1,0,0,1,100,2382,2,2.5,3,3.5
1,3,3,1,28,0,01110.jpg,2,1,0,1,0,0,3032,2,2.5,3,3.5
1,3,3,1,29,0,01010.jpg,1,1,0,0,1,100,2655,2,2.5,3,3.5
1,3,3,1,30,0,10100.jpg,1,2,0,0,0,0,7982,2,2.5,3,3.5
1,3,3,1,31,0,01101.jpg,2,1,0,1,0,-100,8383,2,2.5,3,3.5
1,3,3,1,32,0,01111.jpg,4,3,1,1,0,-200,12777,2,2.5,3,3.5
1,3,3,2,33,0,01011.jpg,3,3,1,0,1,-100,4673,2,2.5,3,3.5
1,3,3,2,34,0,10011.jpg,3,3,1,0,1,0,5303,2,2.5,3,3.5
1,3,3,2,35,0,01111.jpg,4,4,1,1,1,100,2292,2,2.5,3,3.5
1,3,3,2,36,0,00010.jpg,1,1,0,0,1,200,3184,2,2.5,3,3.5
1,3,3,2,37,0,11101.jpg,2,4,0,1,0,100,13147,2,2.5,3,3.5
1,3,3,2,38,0,11001.jpg,2,1,0,1,0,0,3180,2,2.5,3,3.5
1,3,3,2,39,0,10100.jpg,1,2,0,0,0,-100,3126,2,2.5,3,3.5
1,3,3,2,40,0,11111.jpg,4,4,1,1,1,0,12145,2,2.5,3,3.5
1,3,3,2,41,0,00011.jpg,3,1,1,0,0,-100,13034,2,2.5,3,3.5
1,3,3,2,42,0,11000.jpg,1,1,0,0,1,0,4355,2,2.5,3,3.5
1,3,3,2,43,0,10000.jpg,1,1,0,0,1,100,2749,2,2.5,3,3.5
1,3,3,2,44,0,11111.jpg,4,4,1,1,1,200,2673,2,2.5,3,3.5
1,3,3,2,45,0,10010.jpg,1,1,0,0,1,300,4373,2,2.5,3,3.5
1,3,3,2,46,0,01110.jpg,2,2,0,1,1,400,12759,2,2.5,3,3.5
1,3,3,2,47,0,00110.jpg,1,2,0,0,0,300,2210,2,2.5,3,3.5
1,3,3,2,48,0,11001.jpg,2,1,0,1,0,200,12242,2,2.5,3,3.5
1,3,3,2,49,0,00001.jpg,1,1,0,0,1,300,3376,2,2.5,3,3.5
1,3,3,2,50,0,11001.jpg,2,2,0,1,1,400,2474,2,2.5,3,3.5
1,3,3,2,51,0,10111.jpg,4,4,1,1,1,500,5456,2,2.5,3,3.5
1,3,3,2,52,0,01001.jpg,1,1,0,0,1,600,2567,2,2.5,3,3.5
1,3,3,2,53,0,00100.jpg,1,2,0,0,0,500,3329,2,2.5,3,3.5
1,3,3,2,54,0,11110.jpg,2,2,0,1,1,600,4835,2,2.5,3,3.5
1,3,3,2,55,0,11000.jpg,1,1,0,0,1,700,4874,2,2.5,3,3.5
1,3,3,2,56,0,11110.jpg,2,2,0,1,1,800,2265,2,2.5,3,3.5
1,3,3,2,57,0,00010.jpg,1,1,0,0,1,900,3247,2,2.5,3,3.5
1,3,3,2,58,0,11100.jpg,2,2,0,1,1,1000,2437,2,2.5,3,3.5
1,3,3,2,59,0,11101.jpg,2,4,0,1,0,900,8142,2,2.5,3,3.5
1,3,3,2,60,0,10001.jpg,1,1,0,0,1,1000,5544,2,2.5,3,3.5
1,3,3,2,61,0,01000.jpg,1,1,0,0,1,1100,2372,2,2.5,3,3.5
1,3,3,2,62,0,10101.jpg,2,2,0,1,1,1200,3653,2,2.5,3,3.5
1,3,3,2,63,0,11000.jpg,1,1,0,0,1,1300,1843,2,2.5,3,3.5
1,3,3,2,64,0,11011.jpg,4,3,1,1,0,1200,10534,2,2.5,3,3.5
1,3,3,3,65,0,01011.jpg,3,2,1,0,0,1100,5504,2,2.5,3,3.5
1,3,3,3,66,0,10111.jpg,4,4,1,1,1,1200,3277,2,2.5,3,3.5
1,3,3,3,67,0,10001.jpg,1,2,0,0,0,1100,3530,2,2.5,3,3.5
1,3,3,3,68,0,00100.jpg,1,2,0,0,0,1000,11998,2,2.5,3,3.5
1,3,3,3,69,0,10101.jpg,2,3,0,1,0,900,14605,2,2.5,3,3.5
1,3,3,3,70,0,01000.jpg,1,1,0,0,1,1000,2102,2,2.5,3,3.5
1,3,3,3,71,0,10111.jpg,4,4,1,1,1,1100,4051,2,2.5,3,3.5
1,3,3,3,72,0,10110.jpg,2,2,0,1,1,1200,2384,2,2.5,3,3.5
1,3,3,3,73,0,01100.jpg,2,1,0,1,0,1100,5475,2,2.5,3,3.5
1,3,3,3,74,0,11010.jpg,2,1,0,1,0,1000,3080,2,2.5,3,3.5
1,3,3,3,75,0,10000.jpg,1,1,0,0,1,1100,7710,2,2.5,3,3.5
1,3,3,3,76,0,01100.jpg,2,2,0,1,1,1200,1922,2,2.5,3,3.5
1,3,3,3,77,0,00000.jpg,1,1,0,0,1,1300,1790,2,2.5,3,3.5
1,3,3,3,78,0,11101.jpg,2,2,0,1,1,1400,10055,2,2.5,3,3.5
1,3,3,3,79,0,01001.jpg,1,1,0,0,1,1500,3174,2,2.5,3,3.5
1,3,3,3,80,0,00111.jpg,3,2,1,0,0,1400,6047,2,2.5,3,3.5
1,3,3,3,81,0,10100.jpg,1,2,0,0,0,1300,7479,2,2.5,3,3.5
1,3,3,3,82,0,11110.jpg,2,2,0,1,1,1400,3131,2,2.5,3,3.5
1,3,3,3,83,0,01010.jpg,1,1,0,0,1,1500,3734,2,2.5,3,3.5
1,3,3,3,84,0,11010.jpg,2,1,0,1,0,1400,4139,2,2.5,3,3.5
1,3,3,3,85,0,10011.jpg,3,3,1,0,1,1500,17270,2,2.5,3,3.5
1,3,3,3,86,0,01001.jpg,1,1,0,0,1,1600,2036,2,2.5,3,3.5
1,3,3,3,87,0,11010.jpg,2,2,0,1,1,1700,5677,2,2.5,3,3.5
1,3,3,3,88,0,11011.jpg,4,3,1,1,0,1600,3937,2,2.5,3,3.5
1,3,3,3,89,0,10001.jpg,1,1,0,0,1,1700,13067,2,2.5,3,3.5
1,3,3,3,90,0,00110.jpg,1,2,0,0,0,1600,2651,2,2.5,3,3.5
1,3,3,3,91,0,10011.jpg,3,3,1,0,1,1700,6072,2,2.5,3,3.5
1,3,3,3,92,0,00111.jpg,3,2,1,0,0,1600,4840,2,2.5,3,3.5
1,3,3,3,93,0,11100.jpg,2,2,0,1,1,1700,3749,2,2.5,3,3.5
1,3,3,3,94,0,11011.jpg,4,3,1,1,0,1600,3296,2,2.5,3,3.5
1,3,3,3,95,0,01100.jpg,2,2,0,1,1,1700,4539,2,2.5,3,3.5
1,3,3,3,96,0,00101.jpg,1,2,0,0,0,1600,8934,2,2.5,3,3.5
1,3,3,0,97,1,11110pt.jpg,2,2,0,1,1,1600,8934,2,2.5,3,3.5
1,3,3,0,98,1,00101pt.jpg,1,1,0,0,1,1600,8934,2,2.5,3,3.5
1,3,3,0,99,1,11111pt.jpg,4,4,1,1,1,1600,8934,2,2.5,3,3.5
1,3,3,0,100,1,01010pt.jpg,1,1,0,0,1,1600,8934,2,2.5,3,3.5
1,3,3,0,101,1,00111pt.jpg,3,3,1,0,1,1600,8934,2,2.5,3,3.5
1,3,3,0,102,1,10101pt.jpg,2,4,0,1,0,1600,8934,2,2.5,3,3.5
1,3,3,0,103,1,01000pt.jpg,1,1,0,0,1,1600,8934,2,2.5,3,3.5
1,3,3,0,104,1,11011pt.jpg,4,3,1,1,0,1600,8934,2,2.5,3,3.5
1,4,1,1,1,0,01111.jpg,2,3,0,1,0,-100,48406,2.5,2.5,1,1.5
1,4,1,1,2,0,00101.jpg,1,4,0,0,0,-200,19829,2.5,2.5,1,1.5
1,4,1,1,3,0,11011.jpg,2,3,0,1,0,-300,35910,2.5,2.5,1,1.5
1,4,1,1,4,0,01000.jpg,1,2,0,0,0,-400,68272,2.5,2.5,1,1.5
1,4,1,1,5,0,01101.jpg,1,2,0,0,0,-500,26749,2.5,2.5,1,1.5
1,4,1,1,6,0,10100.jpg,3,4,1,0,0,-600,16191,2.5,2.5,1,1.5
1,4,1,1,7,0,00001.jpg,1,1,0,0,1,-500,62568,2.5,2.5,1,1.5
1,4,1,1,8,0,01011.jpg,2,2,0,1,1,-400,25659,2.5,2.5,1,1.5
1,4,1,1,9,0,00000.jpg,1,1,0,0,1,-300,8336,2.5,2.5,1,1.5
1,4,1,1,10,0,01100.jpg,1,1,0,0,1,-200,33867,2.5,2.5,1,1.5
1,4,1,1,11,0,11101.jpg,3,3,1,0,1,-100,12714,2.5,2.5,1,1.5
1,4,1,1,12,0,01000.jpg,1,1,0,0,1,0,11870,2.5,2.5,1,1.5
1,4,1,1,13,0,00011.jpg,2,2,0,1,1,100,5995,2.5,2.5,1,1.5
1,4,1,1,14,0,11001.jpg,1,3,0,0,0,0,5341,2.5,2.5,1,1.5
1,4,1,1,15,0,00100.jpg,1,1,0,0,1,100,24855,2.5,2.5,1,1.5
1,4,1,1,16,0,01110.jpg,2,2,0,1,1,200,7582,2.5,2.5,1,1.5
1,4,1,1,17,0,11110.jpg,4,4,1,1,1,300,5383,2.5,2.5,1,1.5
1,4,1,1,18,0,00111.jpg,2,2,0,1,1,400,3848,2.5,2.5,1,1.5
1,4,1,1,19,0,01000.jpg,1,1,0,0,1,500,3734,2.5,2.5,1,1.5
1,4,1,1,20,0,00010.jpg,2,2,0,1,1,600,5577,2.5,2.5,1,1.5
1,4,1,1,21,0,10100.jpg,3,3,1,0,1,700,7217,2.5,2.5,1,1.5
1,4,1,1,22,0,00010.jpg,2,2,0,1,1,800,2538,2.5,2.5,1,1.5
1,4,1,1,23,0,00001.jpg,1,1,0,0,1,900,6037,2.5,2.5,1,1.5
1,4,1,1,24,0,11111.jpg,4,4,1,1,1,1000,3180,2.5,2.5,1,1.5
1,4,1,1,25,0,11010.jpg,2,4,0,1,0,900,5685,2.5,2.5,1,1.5
1,4,1,1,26,0,10001.jpg,1,3,0,0,0,800,29907,2.5,2.5,1,1.5
1,4,1,1,27,0,00100.jpg,1,1,0,0,1,900,7814,2.5,2.5,1,1.5
1,4,1,1,28,0,10111.jpg,4,2,1,1,0,800,44294,2.5,2.5,1,1.5
1,4,1,1,29,0,00110.jpg,2,2,0,1,1,900,10219,2.5,2.5,1,1.5
1,4,1,1,30,0,10110.jpg,4,2,1,1,0,800,12483,2.5,2.5,1,1.5
1,4,1,1,31,0,11011.jpg,2,4,0,1,0,700,15525,2.5,2.5,1,1.5
1,4,1,1,32,0,01010.jpg,2,2,0,1,1,800,15353,2.5,2.5,1,1.5
1,4,1,2,33,0,00001.jpg,1,1,0,0,1,900,3051,2.5,2.5,1,1.5
1,4,1,2,34,0,10101.jpg,3,3,1,0,1,1000,5801,2.5,2.5,1,1.5
1,4,1,2,35,0,01001.jpg,1,1,0,0,1,1100,2459,2.5,2.5,1,1.5
1,4,1,2,36,0,00110.jpg,2,2,0,1,1,1200,3145,2.5,2.5,1,1.5
1,4,1,2,37,0,00100.jpg,1,1,0,0,1,1300,1972,2.5,2.5,1,1.5
1,4,1,2,38,0,10000.jpg,1,3,0,0,0,1200,3279,2.5,2.5,1,1.5
1,4,1,2,39,0,01001.jpg,1,1,0,0,1,1300,13602,2.5,2.5,1,1.5
1,4,1,2,40,0,00101.jpg,1,1,0,0,1,1400,3156,2.5,2.5,1,1.5
1,4,1,2,41,0,10110.jpg,4,4,1,1,1,1500,19111,2.5,2.5,1,1.5
1,4,1,2,42,0,00010.jpg,2,2,0,1,1,1600,2634,2.5,2.5,1,1.5
1,4,1,2,43,0,00000.jpg,1,1,0,0,1,1700,1649,2.5,2.5,1,1.5
1,4,1,2,44,0,01111.jpg,2,2,0,1,1,1800,2496,2.5,2.5,1,1.5
1,4,1,2,45,0,11111.jpg,4,4,1,1,1,1900,3709,2.5,2.5,1,1.5
1,4,1,2,46,0,10000.jpg,1,1,0,0,1,2000,10344,2.5,2.5,1,1.5
1,4,1,2,47,0,00111.jpg,2,2,0,1,1,2100,4885,2.5,2.5,1,1.5
1,4,1,2,48,0,01101.jpg,1,1,0,0,1,2200,2113,2.5,2.5,1,1.5
1,4,1,2,49,0,00011.jpg,2,2,0,1,1,2300,1718,2.5,2.5,1,1.5
1,4,1,2,50,0,01011.jpg,2,2,0,1,1,2400,1842,2.5,2.5,1,1.5
1,4,1,2,51,0,11101.jpg,3,1,1,0,0,2300,5824,2.5,2.5,1,1.5
1,4,1,2,52,0,01111.jpg,2,2,0,1,1,2400,6568,2.5,2.5,1,1.5
1,4,1,2,53,0,10101.jpg,3,3,1,0,1,2500,4706,2.5,2.5,1,1.5
1,4,1,2,54,0,00011.jpg,2,2,0,1,1,2600,1615,2.5,2.5,1,1.5
1,4,1,2,55,0,10100.jpg,3,1,1,0,0,2500,5063,2.5,2.5,1,1.5
1,4,1,2,56,0,00101.jpg,1,1,0,0,1,2600,2813,2.5,2.5,1,1.5
1,4,1,2,57,0,10101.jpg,3,3,1,0,1,2700,2654,2.5,2.5,1,1.5
1,4,1,2,58,0,11001.jpg,1,1,0,0,1,2800,4597,2.5,2.5,1,1.5
1,4,1,2,59,0,10110.jpg,4,4,1,1,1,2900,3198,2.5,2.5,1,1.5
1,4,1,2,60,0,01110.jpg,2,2,0,1,1,3000,3054,2.5,2.5,1,1.5
1,4,1,2,61,0,10000.jpg,1,1,0,0,1,3100,2884,2.5,2.5,1,1.5
1,4,1,2,62,0,11000.jpg,1,1,0,0,1,3200,2226,2.5,2.5,1,1.5
1,4,1,2,63,0,10111.jpg,4,4,1,1,1,3300,3698,2.5,2.5,1,1.5
1,4,1,2,64,0,11100.jpg,3,3,1,0,1,3400,3645,2.5,2.5,1,1.5
1,4,1,3,65,0,11110.jpg,4,4,1,1,1,3500,1750,2.5,2.5,1,1.5
1,4,1,3,66,0,10001.jpg,1,1,0,0,1,3600,4398,2.5,2.5,1,1.5
1,4,1,3,67,0,11110.jpg,4,4,1,1,1,3700,1512,2.5,2.5,1,1.5
1,4,1,3,68,0,11000.jpg,1,1,0,0,1,3800,2268,2.5,2.5,1,1.5
1,4,1,3,69,0,10011.jpg,2,2,0,1,1,3900,2289,2.5,2.5,1,1.5
1,4,1,3,70,0,10011.jpg,2,2,0,1,1,4000,1887,2.5,2.5,1,1.5
1,4,1,3,71,0,11010.jpg,2,2,0,1,1,4100,1796,2.5,2.5,1,1.5
1,4,1,3,72,0,11001.jpg,1,1,0,0,1,4200,3971,2.5,2.5,1,1.5
1,4,1,3,73,0,10010.jpg,2,2,0,1,1,4300,2254,2.5,2.5,1,1.5
1,4,1,3,74,0,00000.jpg,1,1,0,0,1,4400,2125,2.5,2.5,1,1.5
1,4,1,3,75,0,00111.jpg,2,2,0,1,1,4500,1912,2.5,2.5,1,1.5
1,4,1,3,76,0,10111.jpg,4,4,1,1,1,4600,3773,2.5,2.5,1,1.5
1,4,1,3,77,0,01100.jpg,1,1,0,0,1,4700,1877,2.5,2.5,1,1.5
1,4,1,3,78,0,10011.jpg,2,2,0,1,1,4800,1570,2.5,2.5,1,1.5
1,4,1,3,79,0,11100.jpg,3,3,1,0,1,4900,4221,2.5,2.5,1,1.5
1,4,1,3,80,0,10010.jpg,2,2,0,1,1,5000,2165,2.5,2.5,1,1.5
1,4,1,3,81,0,11111.jpg,4,4,1,1,1,5100,1503,2.5,2.5,1,1.5
1,4,1,3,82,0,01010.jpg,2,2,0,1,1,5200,1579,2.5,2.5,1,1.5
1,4,1,3,83,0,01101.jpg,1,1,0,0,1,5300,2900,2.5,2.5,1,1.5
1,4,1,3,84,0,10010.jpg,2,2,0,1,1,5400,2064,2.5,2.5,1,1.5
1,4,1,3,85,0,01100.jpg,1,1,0,0,1,5500,1438,2.5,2.5,1,1.5
1,4,1,3,86,0,11010.jpg,2,2,0,1,1,5600,2229,2.5,2.5,1,1.5
1,4,1,3,87,0,01010.jpg,2,2,0,1,1,5700,2253,2.5,2.5,1,1.5
1,4,1,3,88,0,00110.jpg,2,2,0,1,1,5800,1947,2.5,2.5,1,1.5
1,4,1,3,89,0,11100.jpg,3,3,1,0,1,5900,3655,2.5,2.5,1,1.5
1,4,1,3,90,0,10001.jpg,1,1,0,0,1,6000,2806,2.5,2.5,1,1.5
1,4,1,3,91,0,11011.jpg,2,2,0,1,1,6100,1574,2.5,2.5,1,1.5
1,4,1,3,92,0,01110.jpg,2,2,0,1,1,6200,1654,2.5,2.5,1,1.5
1,4,1,3,93,0,01011.jpg,2,2,0,1,1,6300,1494,2.5,2.5,1,1.5
1,4,1,3,94,0,01001.jpg,1,1,0,0,1,6400,3850,2.5,2.5,1,1.5
1,4,1,3,95,0,11101.jpg,3,2,1,0,0,6300,3394,2.5,2.5,1,1.5
1,4,1,3,96,0,11000.jpg,1,1,0,0,1,6400,5113,2.5,2.5,1,1.5
1,4,1,0,97,1,11011pt.jpg,2,3,0,1,0,6400,34862,2.5,2.5,1,1.5
1,4,1,0,98,1,11110pt.jpg,4,4,1,1,1,6400,21161,2.5,2.5,1,1.5
1,4,1,0,99,1,01010pt.jpg,2,2,0,1,1,6400,14584,2.5,2.5,1,1.5
1,4,1,0,100,1,00111pt.jpg,2,2,0,1,1,6400,5519,2.5,2.5,1,1.5
1,4,1,0,101,1,00101pt.jpg,1,1,0,0,1,6400,13416,2.5,2.5,1,1.5
1,4,1,0,102,1,10101pt.jpg,3,3,1,0,1,6400,12278,2.5,2.5,1,1.5
1,4,1,0,103,1,11111pt.jpg,4,4,1,1,1,6400,8176,2.5,2.5,1,1.5
1,4,1,0,104,1,01000pt.jpg,1,1,0,0,1,6400,8863,2.5,2.5,1,1.5
1,4,2,1,1,0,10011.jpg,3,1,1,0,0,-100,57159,2.5,2.5,1,1.5
1,4,2,1,2,0,10110.jpg,4,3,1,1,0,-200,12363,2.5,2.5,1,1.5
1,4,2,1,3,0,10101.jpg,2,3,0,1,0,-300,16763,2.5,2.5,1,1.5
1,4,2,1,4,0,00001.jpg,1,1,0,0,1,-200,28837,2.5,2.5,1,1.5
1,4,2,1,5,0,11101.jpg,2,2,0,1,1,-100,21868,2.5,2.5,1,1.5
1,4,2,1,6,0,01000.jpg,1,1,0,0,1,0,3402,2.5,2.5,1,1.5
1,4,2,1,7,0,01001.jpg,1,1,0,0,1,100,1387,2.5,2.5,1,1.5
1,4,2,1,8,0,10110.jpg,4,4,1,1,1,200,12405,2.5,2.5,1,1.5
1,4,2,1,9,0,10011.jpg,3,3,1,0,1,300,5892,2.5,2.5,1,1.5
1,4,2,1,10,0,10001.jpg,1,1,0,0,1,400,12272,2.5,2.5,1,1.5
1,4,2,1,11,0,11110.jpg,4,4,1,1,1,500,3391,2.5,2.5,1,1.5
1,4,2,1,12,0,10001.jpg,1,1,0,0,1,600,3814,2.5,2.5,1,1.5
1,4,2,1,13,0,10100.jpg,2,2,0,1,1,700,5000,2.5,2.5,1,1.5
1,4,2,1,14,0,10001.jpg,1,1,0,0,1,800,2000,2.5,2.5,1,1.5
1,4,2,1,15,0,01000.jpg,1,1,0,0,1,900,3017,2.5,2.5,1,1.5
1,4,2,1,16,0,11111.jpg,4,4,1,1,1,1000,2329,2.5,2.5,1,1.5
1,4,2,1,17,0,01100.jpg,2,2,0,1,1,1100,2332,2.5,2.5,1,1.5
1,4,2,1,18,0,11011.jpg,4,3,1,1,0,1000,2767,2.5,2.5,1,1.5
1,4,2,1,19,0,01110.jpg,4,3,1,1,0,900,19887,2.5,2.5,1,1.5
1,4,2,1,20,0,11000.jpg,2,1,0,1,0,800,2490,2.5,2.5,1,1.5
1,4,2,1,21,0,11111.jpg,4,4,1,1,1,900,7351,2.5,2.5,1,1.5
1,4,2,1,22,0,00100.jpg,1,2,0,0,0,800,5944,2.5,2.5,1,1.5
1,4,2,1,23,0,00000.jpg,1,1,0,0,1,900,2667,2.5,2.5,1,1.5
1,4,2,1,24,0,11110.jpg,4,4,1,1,1,1000,8592,2.5,2.5,1,1.5
1,4,2,1,25,0,11010.jpg,4,4,1,1,1,1100,30625,2.5,2.5,1,1.5
1,4,2,1,26,0,01101.jpg,2,2,0,1,1,1200,9567,2.5,2.5,1,1.5
1,4,2,1,27,0,11010.jpg,4,3,1,1,0,1100,21401,2.5,2.5,1,1.5
1,4,2,1,28,0,00101.jpg,1,2,0,0,0,1000,3295,2.5,2.5,1,1.5
1,4,2,1,29,0,11000.jpg,2,1,0,1,0,900,9420,2.5,2.5,1,1.5
1,4,2,1,30,0,01101.jpg,2,2,0,1,1,1000,4204,2.5,2.5,1,1.5
1,4,2,1,31,0,11011.jpg,4,4,1,1,1,1100,17141,2.5,2.5,1,1.5
1,4,2,1,32,0,00011.jpg,3,2,1,0,0,1000,25783,2.5,2.5,1,1.5
1,4,2,2,33,0,11000.jpg,2,2,0,1,1,1100,14624,2.5,2.5,1,1.5
1,4,2,2,34,0,00110.jpg,3,3,1,0,1,1200,13200,2.5,2.5,1,1.5
1,4,2,2,35,0,00010.jpg,3,3,1,0,1,1300,4600,2.5,2.5,1,1.5
1,4,2,2,36,0,00110.jpg,3,3,1,0,1,1400,3627,2.5,2.5,1,1.5
1,4,2,2,37,0,00100.jpg,1,1,0,0,1,1500,10473,2.5,2.5,1,1.5
1,4,2,2,38,0,10000.jpg,1,2,0,0,0,1400,2847,2.5,2.5,1,1.5
1,4,2,2,39,0,00010.jpg,3,3,1,0,1,1500,20006,2.5,2.5,1,1.5
1,4,2,2,40,0,00110.jpg,3,3,1,0,1,1600,7367,2.5,2.5,1,1.5
1,4,2,2,41,0,10101.jpg,2,2,0,1,1,1700,7321,2.5,2.5,1,1.5
1,4,2,2,42,0,01111.jpg,4,3,1,1,0,1600,2894,2.5,2.5,1,1.5
1,4,2,2,43,0,11101.jpg,2,2,0,1,1,1700,10224,2.5,2.5,1,1.5
1,4,2,2,44,0,10011.jpg,3,4,1,0,0,1600,12344,2.5,2.5,1,1.5
1,4,2,2,45,0,01110.jpg,4,3,1,1,0,1500,1851,2.5,2.5,1,1.5
1,4,2,2,46,0,00001.jpg,1,1,0,0,1,1600,17056,2.5,2.5,1,1.5
1,4,2,2,47,0,10111.jpg,4,4,1,1,1,1700,9983,2.5,2.5,1,1.5
1,4,2,2,48,0,01001.jpg,1,1,0,0,1,1800,2879,2.5,2.5,1,1.5
1,4,2,2,49,0,11010.jpg,4,3,1,1,0,1700,3741,2.5,2.5,1,1.5
1,4,2,2,50,0,10101.jpg,2,2,0,1,1,1800,5526,2.5,2.5,1,1.5
1,4,2,2,51,0,11100.jpg,2,2,0,1,1,1900,5002,2.5,2.5,1,1.5
1,4,2,2,52,0,01100.jpg,2,1,0,1,0,1800,2586,2.5,2.5,1,1.5
1,4,2,2,53,0,10100.jpg,2,2,0,1,1,1900,2523,2.5,2.5,1,1.5
1,4,2,2,54,0,00101.jpg,1,2,0,0,0,1800,4335,2.5,2.5,1,1.5
1,4,2,2,55,0,00001.jpg,1,1,0,0,1,1900,3618,2.5,2.5,1,1.5
1,4,2,2,56,0,00101.jpg,1,1,0,0,1,2000,4154,2.5,2.5,1,1.5
1,4,2,2,57,0,01010.jpg,3,4,1,0,0,1900,19173,2.5,2.5,1,1.5
1,4,2,2,58,0,10010.jpg,3,4,1,0,0,1800,3502,2.5,2.5,1,1.5
1,4,2,2,59,0,10010.jpg,3,3,1,0,1,1900,3266,2.5,2.5,1,1.5
1,4,2,2,60,0,01110.jpg,4,3,1,1,0,1800,10152,2.5,2.5,1,1.5
1,4,2,2,61,0,00010.jpg,3,2,1,0,0,1700,40530,2.5,2.5,1,1.5
1,4,2,2,62,0,11001.jpg,2,1,0,1,0,1600,31108,2.5,2.5,1,1.5
1,4,2,2,63,0,00111.jpg,3,2,1,0,0,1500,14560,2.5,2.5,1,1.5
1,4,2,2,64,0,00100.jpg,1,1,0,0,1,1600,20130,2.5,2.5,1,1.5
1,4,2,3,65,0,10100.jpg,2,2,0,1,1,1700,22589,2.5,2.5,1,1.5
1,4,2,3,66,0,10110.jpg,4,4,1,1,1,1800,4686,2.5,2.5,1,1.5
1,4,2,3,67,0,10000.jpg,1,2,0,0,0,1700,14779,2.5,2.5,1,1.5
1,4,2,3,68,0,00011.jpg,3,3,1,0,1,1800,28564,2.5,2.5,1,1.5
1,4,2,3,69,0,11110.jpg,4,4,1,1,1,1900,2063,2.5,2.5,1,1.5
1,4,2,3,70,0,10111.jpg,4,4,1,1,1,2000,5892,2.5,2.5,1,1.5
1,4,2,3,71,0,00111.jpg,3,3,1,0,1,2100,4231,2.5,2.5,1,1.5
1,4,2,3,72,0,11011.jpg,4,3,1,1,0,2000,8696,2.5,2.5,1,1.5
1,4,2,3,73,0,01010.jpg,3,3,1,0,1,2100,19947,2.5,2.5,1,1.5
1,4,2,3,74,0,01001.jpg,1,1,0,0,1,2200,2269,2.5,2.5,1,1.5
1,4,2,3,75,0,00000.jpg,1,1,0,0,1,2300,2404,2.5,2.5,1,1.5
1,4,2,3,76,0,01010.jpg,3,3,1,0,1,2400,4596,2.5,2.5,1,1.5
1,4,2,3,77,0,11001.jpg,2,1,0,1,0,2300,19423,2.5,2.5,1,1.5
1,4,2,3,78,0,10000.jpg,1,2,0,0,0,2200,8180,2.5,2.5,1,1.5
1,4,2,3,79,0,01100.jpg,2,2,0,1,1,2300,33206,2.5,2.5,1,1.5
1,4,2,3,80,0,11100.jpg,2,2,0,1,1,2400,21343,2.5,2.5,1,1.5
1,4,2,3,81,0,01000.jpg,1,1,0,0,1,2500,2889,2.5,2.5,1,1.5
1,4,2,3,82,0,11100.jpg,2,2,0,1,1,2600,3094,2.5,2.5,1,1.5
1,4,2,3,83,0,00000.jpg,1,1,0,0,1,2700,1563,2.5,2.5,1,1.5
1,4,2,3,84,0,01111.jpg,4,4,1,1,1,2800,4980,2.5,2.5,1,1.5
1,4,2,3,85,0,00011.jpg,3,3,1,0,1,2900,3579,2.5,2.5,1,1.5
1,4,2,3,86,0,11111.jpg,4,4,1,1,1,3000,1812,2.5,2.5,1,1.5
1,4,2,3,87,0,11001.jpg,2,1,0,1,0,2900,6139,2.5,2.5,1,1.5
1,4,2,3,88,0,01011.jpg,3,3,1,0,1,3000,3207,2.5,2.5,1,1.5
1,4,2,3,89,0,01101.jpg,2,2,0,1,1,3100,6672,2.5,2.5,1,1.5
1,4,2,3,90,0,10111.jpg,4,4,1,1,1,3200,1486,2.5,2.5,1,1.5
1,4,2,3,91,0,01111.jpg,4,3,1,1,0,3100,4570,2.5,2.5,1,1.5
1,4,2,3,92,0,01011.jpg,3,3,1,0,1,3200,2338,2.5,2.5,1,1.5
1,4,2,3,93,0,00111.jpg,3,4,1,0,0,3100,2701,2.5,2.5,1,1.5
1,4,2,3,94,0,01011.jpg,3,3,1,0,1,3200,4738,2.5,2.5,1,1.5
1,4,2,3,95,0,10010.jpg,3,3,1,0,1,3300,2734,2.5,2.5,1,1.5
1,4,2,3,96,0,11101.jpg,2,2,0,1,1,3400,5458,2.5,2.5,1,1.5
1,4,2,0,97,1,10101pt.jpg,2,4,0,1,0,3400,5458,2.5,2.5,1,1.5
1,4,2,0,98,1,11011pt.jpg,4,3,1,1,0,3400,5458,2.5,2.5,1,1.5
1,4,2,0,99,1,11111pt.jpg,4,4,1,1,1,3400,5458,2.5,2.5,1,1.5
1,4,2,0,100,1,00111pt.jpg,3,3,1,0,1,3400,5458,2.5,2.5,1,1.5
1,4,2,0,101,1,01000pt.jpg,1,1,0,0,1,3400,5458,2.5,2.5,1,1.5
1,4,2,0,102,1,01010pt.jpg,3,3,1,0,1,3400,5458,2.5,2.5,1,1.5
1,4,2,0,103,1,11110pt.jpg,4,4,1,1,1,3400,5458,2.5,2.5,1,1.5
1,4,2,0,104,1,00101pt.jpg,1,1,0,0,1,3400,5458,2.5,2.5,1,1.5
1,4,3,1,1,0,11000.jpg,1,3,0,0,0,-100,21791,2.5,2.5,1,1.5
1,4,3,1,2,0,10110.jpg,2,4,0,1,0,-200,6568,2.5,2.5,1,1.5
1,4,3,1,3,0,10101.jpg,2,2,0,1,1,-100,49130,2.5,2.5,1,1.5
1,4,3,1,4,0,01111.jpg,4,2,1,1,0,-200,25518,2.5,2.5,1,1.5
1,4,3,1,5,0,01010.jpg,1,4,0,0,0,-300,7567,2.5,2.5,1,1.5
1,4,3,1,6,0,01100.jpg,2,3,0,1,0,-400,28209,2.5,2.5,1,1.5
1,4,3,1,7,0,01100.jpg,2,2,0,1,1,-300,1839,2.5,2.5,1,1.5
1,4,3,1,8,0,11010.jpg,2,1,0,1,0,-400,21078,2.5,2.5,1,1.5
1,4,3,1,9,0,10000.jpg,1,2,0,0,0,-500,4315,2.5,2.5,1,1.5
1,4,3,1,10,0,01101.jpg,2,2,0,1,1,-400,23385,2.5,2.5,1,1.5
1,4,3,1,11,0,11110.jpg,2,1,0,1,0,-500,6297,2.5,2.5,1,1.5
1,4,3,1,12,0,11011.jpg,4,2,1,1,0,-600,19423,2.5,2.5,1,1.5
1,4,3,1,13,0,01000.jpg,1,1,0,0,1,-500,21595,2.5,2.5,1,1.5
1,4,3,1,14,0,00101.jpg,1,2,0,0,0,-600,14797,2.5,2.5,1,1.5
1,4,3,1,15,0,10001.jpg,1,3,0,0,0,-700,28398,2.5,2.5,1,1.5
1,4,3,1,16,0,00010.jpg,1,2,0,0,0,-800,19221,2.5,2.5,1,1.5
1,4,3,1,17,0,10010.jpg,1,2,0,0,0,-900,10069,2.5,2.5,1,1.5
1,4,3,1,18,0,00000.jpg,1,1,0,0,1,-800,2874,2.5,2.5,1,1.5
1,4,3,1,19,0,11110.jpg,2,2,0,1,1,-700,12456,2.5,2.5,1,1.5
1,4,3,1,20,0,01111.jpg,4,1,1,1,0,-800,18894,2.5,2.5,1,1.5
1,4,3,1,21,0,11100.jpg,2,3,0,1,0,-900,30241,2.5,2.5,1,1.5
1,4,3,1,22,0,00011.jpg,3,1,1,0,0,-1000,4528,2.5,2.5,1,1.5
1,4,3,1,23,0,01001.jpg,1,1,0,0,1,-900,2708,2.5,2.5,1,1.5
1,4,3,1,24,0,11101.jpg,2,2,0,1,1,-800,13104,2.5,2.5,1,1.5
1,4,3,1,25,0,01000.jpg,1,1,0,0,1,-700,1741,2.5,2.5,1,1.5
1,4,3,1,26,0,11011.jpg,4,4,1,1,1,-600,30527,2.5,2.5,1,1.5
1,4,3,1,27,0,00001.jpg,1,1,0,0,1,-500,3123,2.5,2.5,1,1.5
1,4,3,1,28,0,01011.jpg,3,3,1,0,1,-400,7374,2.5,2.5,1,1.5
1,4,3,1,29,0,11110.jpg,2,2,0,1,1,-300,12496,2.5,2.5,1,1.5
1,4,3,1,30,0,00100.jpg,1,1,0,0,1,-200,3238,2.5,2.5,1,1.5
1,4,3,1,31,0,10000.jpg,1,1,0,0,1,-100,2061,2.5,2.5,1,1.5
1,4,3,1,32,0,11010.jpg,2,4,0,1,0,-200,11156,2.5,2.5,1,1.5
1,4,3,2,33,0,10110.jpg,2,2,0,1,1,-100,8437,2.5,2.5,1,1.5
1,4,3,2,34,0,00111.jpg,3,4,1,0,0,-200,10252,2.5,2.5,1,1.5
1,4,3,2,35,0,11101.jpg,2,2,0,1,1,-100,3668,2.5,2.5,1,1.5
1,4,3,2,36,0,10011.jpg,3,4,1,0,0,-200,39553,2.5,2.5,1,1.5
1,4,3,2,37,0,00000.jpg,1,1,0,0,1,-100,1715,2.5,2.5,1,1.5
1,4,3,2,38,0,00101.jpg,1,1,0,0,1,0,1648,2.5,2.5,1,1.5
1,4,3,2,39,0,10111.jpg,4,2,1,1,0,-100,2143,2.5,2.5,1,1.5
1,4,3,2,40,0,10100.jpg,1,2,0,0,0,-200,13128,2.5,2.5,1,1.5
1,4,3,2,41,0,11111.jpg,4,3,1,1,0,-300,16684,2.5,2.5,1,1.5
1,4,3,2,42,0,01101.jpg,2,1,0,1,0,-400,1991,2.5,2.5,1,1.5
1,4,3,2,43,0,10111.jpg,4,2,1,1,0,-500,24744,2.5,2.5,1,1.5
1,4,3,2,44,0,00010.jpg,1,2,0,0,0,-600,32633,2.5,2.5,1,1.5
1,4,3,2,45,0,10010.jpg,1,3,0,0,0,-700,26073,2.5,2.5,1,1.5
1,4,3,2,46,0,01101.jpg,2,2,0,1,1,-600,19013,2.5,2.5,1,1.5
1,4,3,2,47,0,00010.jpg,1,1,0,0,1,-500,28341,2.5,2.5,1,1.5
1,4,3,2,48,0,01010.jpg,1,1,0,0,1,-400,1184,2.5,2.5,1,1.5
1,4,3,2,49,0,00011.jpg,3,1,1,0,0,-500,2081,2.5,2.5,1,1.5
1,4,3,2,50,0,10011.jpg,3,4,1,0,0,-600,24686,2.5,2.5,1,1.5
1,4,3,2,51,0,00100.jpg,1,2,0,0,0,-700,11524,2.5,2.5,1,1.5
1,4,3,2,52,0,00011.jpg,3,3,1,0,1,-600,4182,2.5,2.5,1,1.5
1,4,3,2,53,0,10010.jpg,1,1,0,0,1,-500,3217,2.5,2.5,1,1.5
1,4,3,2,54,0,00101.jpg,1,3,0,0,0,-600,22688,2.5,2.5,1,1.5
1,4,3,2,55,0,10000.jpg,1,1,0,0,1,-500,20182,2.5,2.5,1,1.5
1,4,3,2,56,0,01011.jpg,3,3,1,0,1,-400,2150,2.5,2.5,1,1.5
1,4,3,2,57,0,01001.jpg,1,1,0,0,1,-300,13009,2.5,2.5,1,1.5
1,4,3,2,58,0,11101.jpg,2,3,0,1,0,-400,9785,2.5,2.5,1,1.5
1,4,3,2,59,0,00111.jpg,3,4,1,0,0,-500,32226,2.5,2.5,1,1.5
1,4,3,2,60,0,00001.jpg,1,1,0,0,1,-400,2010,2.5,2.5,1,1.5
1,4,3,2,61,0,01001.jpg,1,1,0,0,1,-300,1146,2.5,2.5,1,1.5
1,4,3,2,62,0,00111.jpg,3,3,1,0,1,-200,2500,2.5,2.5,1,1.5
1,4,3,2,63,0,11001.jpg,2,2,0,1,1,-100,9775,2.5,2.5,1,1.5
1,4,3,2,64,0,10101.jpg,2,2,0,1,1,0,15925,2.5,2.5,1,1.5
1,4,3,3,65,0,10100.jpg,1,2,0,0,0,-100,6697,2.5,2.5,1,1.5
1,4,3,3,66,0,11001.jpg,2,2,0,1,1,0,21910,2.5,2.5,1,1.5
1,4,3,3,67,0,01111.jpg,4,3,1,1,0,-100,1889,2.5,2.5,1,1.5
1,4,3,3,68,0,00110.jpg,1,1,0,0,1,0,5989,2.5,2.5,1,1.5
1,4,3,3,69,0,10110.jpg,2,3,0,1,0,-100,63846,2.5,2.5,1,1.5
1,4,3,3,70,0,10001.jpg,1,2,0,0,0,-200,9613,2.5,2.5,1,1.5
1,4,3,3,71,0,01011.jpg,3,3,1,0,1,-100,22508,2.5,2.5,1,1.5
1,4,3,3,72,0,11100.jpg,2,4,0,1,0,-200,11633,2.5,2.5,1,1.5
1,4,3,3,73,0,11000.jpg,1,2,0,0,0,-300,10832,2.5,2.5,1,1.5
1,4,3,3,74,0,10011.jpg,3,3,1,0,1,-200,25368,2.5,2.5,1,1.5
1,4,3,3,75,0,01110.jpg,2,2,0,1,1,-100,18122,2.5,2.5,1,1.5
1,4,3,3,76,0,00110.jpg,1,2,0,0,0,-200,1405,2.5,2.5,1,1.5
1,4,3,3,77,0,01010.jpg,1,2,0,0,0,-300,5783,2.5,2.5,1,1.5
1,4,3,3,78,0,01110.jpg,2,1,0,1,0,-400,4430,2.5,2.5,1,1.5
1,4,3,3,79,0,00100.jpg,1,1,0,0,1,-300,18277,2.5,2.5,1,1.5
1,4,3,3,80,0,00110.jpg,1,1,0,0,1,-200,10404,2.5,2.5,1,1.5
1,4,3,3,81,0,11011.jpg,4,2,1,1,0,-300,24604,2.5,2.5,1,1.5
1,4,3,3,82,0,11000.jpg,1,1,0,0,1,-200,25194,2.5,2.5,1,1.5
1,4,3,3,83,0,10111.jpg,4,4,1,1,1,-100,25509,2.5,2.5,1,1.5
1,4,3,3,84,0,10001.jpg,1,1,0,0,1,0,2919,2.5,2.5,1,1.5
1,4,3,3,85,0,11010.jpg,2,2,0,1,1,100,17859,2.5,2.5,1,1.5
1,4,3,3,86,0,00001.jpg,1,1,0,0,1,200,1906,2.5,2.5,1,1.5
1,4,3,3,87,0,11111.jpg,4,4,1,1,1,300,3398,2.5,2.5,1,1.5
1,4,3,3,88,0,10100.jpg,1,2,0,0,0,200,26430,2.5,2.5,1,1.5
1,4,3,3,89,0,00000.jpg,1,1,0,0,1,300,1853,2.5,2.5,1,1.5
1,4,3,3,90,0,10101.jpg,2,1,0,1,0,200,8276,2.5,2.5,1,1.5
1,4,3,3,91,0,01100.jpg,2,1,0,1,0,100,2481,2.5,2.5,1,1.5
1,4,3,3,92,0,01110.jpg,2,2,0,1,1,200,16054,2.5,2.5,1,1.5
1,4,3,3,93,0,01000.jpg,1,1,0,0,1,300,1789,2.5,2.5,1,1.5
1,4,3,3,94,0,11001.jpg,2,1,0,1,0,200,2542,2.5,2.5,1,1.5
1,4,3,3,95,0,11100.jpg,2,1,0,1,0,100,23096,2.5,2.5,1,1.5
1,4,3,3,96,0,11111.jpg,4,4,1,1,1,200,4462,2.5,2.5,1,1.5
1,4,3,0,97,1,11111pt.jpg,4,4,1,1,1,200,4462,2.5,2.5,1,1.5
1,4,3,0,98,1,00111pt.jpg,3,3,1,0,1,200,4462,2.5,2.5,1,1.5
1,4,3,0,99,1,10101pt.jpg,2,3,0,1,0,200,4462,2.5,2.5,1,1.5
1,4,3,0,100,1,00101pt.jpg,1,2,0,0,0,200,4462,2.5,2.5,1,1.5
1,4,3,0,101,1,01000pt.jpg,1,1,0,0,1,200,4462,2.5,2.5,1,1.5
1,4,3,0,102,1,01010pt.jpg,1,1,0,0,1,200,4462,2.5,2.5,1,1.5
1,4,3,0,103,1,11110pt.jpg,2,2,0,1,1,200,4462,2.5,2.5,1,1.5
1,4,3,0,104,1,11011pt.jpg,4,3,1,1,0,200,4462,2.5,2.5,1,1.5
1,5,1,1,1,0,10101.jpg,3,4,1,0,0,-100,20111,2,3.5,3,1.5
1,5,1,1,2,0,10000.jpg,1,4,0,0,0,-200,10841,2,3.5,3,1.5
1,5,1,1,3,0,10100.jpg,3,3,1,0,1,-100,6407,2,3.5,3,1.5
1,5,1,1,4,0,10000.jpg,1,3,0,0,0,-200,12169,2,3.5,3,1.5
1,5,1,1,5,0,11111.jpg,4,2,1,1,0,-300,23122,2,3.5,3,1.5
1,5,1,1,6,0,11101.jpg,3,3,1,0,1,-200,33539,2,3.5,3,1.5
1,5,1,1,7,0,11101.jpg,3,3,1,0,1,-100,8710,2,3.5,3,1.5
1,5,1,1,8,0,10101.jpg,3,4,1,0,0,-200,12859,2,3.5,3,1.5
1,5,1,1,9,0,01100.jpg,1,1,0,0,1,-100,5570,2,3.5,3,1.5
1,5,1,1,10,0,11000.jpg,1,1,0,0,1,0,24723,2,3.5,3,1.5
1,5,1,1,11,0,01111.jpg,2,2,0,1,1,100,7167,2,3.5,3,1.5
1,5,1,1,12,0,10010.jpg,2,2,0,1,1,200,16577,2,3.5,3,1.5
1,5,1,1,13,0,11010.jpg,2,2,0,1,1,300,6747,2,3.5,3,1.5
1,5,1,1,14,0,10100.jpg,3,2,1,0,0,200,28356,2,3.5,3,1.5
1,5,1,1,15,0,01011.jpg,2,2,0,1,1,300,4583,2,3.5,3,1.5
1,5,1,1,16,0,00011.jpg,2,2,0,1,1,400,2656,2,3.5,3,1.5
1,5,1,1,17,0,00011.jpg,2,2,0,1,1,500,1768,2,3.5,3,1.5
1,5,1,1,18,0,00001.jpg,1,2,0,0,0,400,2889,2,3.5,3,1.5
1,5,1,1,19,0,11000.jpg,1,1,0,0,1,500,14270,2,3.5,3,1.5
1,5,1,1,20,0,10010.jpg,2,2,0,1,1,600,7291,2,3.5,3,1.5
1,5,1,1,21,0,01100.jpg,1,1,0,0,1,700,8783,2,3.5,3,1.5
1,5,1,1,22,0,01010.jpg,2,2,0,1,1,800,3546,2,3.5,3,1.5
1,5,1,1,23,0,01101.jpg,1,1,0,0,1,900,3411,2,3.5,3,1.5
1,5,1,1,24,0,11011.jpg,2,2,0,1,1,1000,23148,2,3.5,3,1.5
1,5,1,1,25,0,11110.jpg,4,4,1,1,1,1100,11686,2,3.5,3,1.5
1,5,1,1,26,0,11000.jpg,1,1,0,0,1,1200,9402,2,3.5,3,1.5
1,5,1,1,27,0,00100.jpg,1,1,0,0,1,1300,4011,2,3.5,3,1.5
1,5,1,1,28,0,00110.jpg,2,2,0,1,1,1400,2251,2,3.5,3,1.5
1,5,1,1,29,0,11100.jpg,3,3,1,0,1,1500,9162,2,3.5,3,1.5
1,5,1,1,30,0,01000.jpg,1,1,0,0,1,1600,1877,2,3.5,3,1.5
1,5,1,1,31,0,10100.jpg,3,3,1,0,1,1700,11355,2,3.5,3,1.5
1,5,1,1,32,0,00110.jpg,2,2,0,1,1,1800,34565,2,3.5,3,1.5
1,5,1,2,33,0,00100.jpg,1,1,0,0,1,1900,4207,2,3.5,3,1.5
1,5,1,2,34,0,00111.jpg,2,2,0,1,1,2000,6481,2,3.5,3,1.5
1,5,1,2,35,0,11010.jpg,2,2,0,1,1,2100,4373,2,3.5,3,1.5
1,5,1,2,36,0,01001.jpg,1,1,0,0,1,2200,2663,2,3.5,3,1.5
1,5,1,2,37,0,01111.jpg,2,2,0,1,1,2300,2989,2,3.5,3,1.5
1,5,1,2,38,0,11110.jpg,4,4,1,1,1,2400,4294,2,3.5,3,1.5
1,5,1,2,39,0,10111.jpg,4,4,1,1,1,2500,10186,2,3.5,3,1.5
1,5,1,2,40,0,10011.jpg,2,2,0,1,1,2600,12083,2,3.5,3,1.5
1,5,1,2,41,0,10011.jpg,2,2,0,1,1,2700,1887,2,3.5,3,1.5
1,5,1,2,42,0,10111.jpg,4,4,1,1,1,2800,3629,2,3.5,3,1.5
1,5,1,2,43,0,01010.jpg,2,2,0,1,1,2900,2347,2,3.5,3,1.5
1,5,1,2,44,0,00000.jpg,1,1,0,0,1,3000,3287,2,3.5,3,1.5
1,5,1,2,45,0,11001.jpg,1,1,0,0,1,3100,2515,2,3.5,3,1.5
1,5,1,2,46,0,01110.jpg,2,2,0,1,1,3200,8752,2,3.5,3,1.5
1,5,1,2,47,0,00001.jpg,1,1,0,0,1,3300,2841,2,3.5,3,1.5
1,5,1,2,48,0,11111.jpg,4,4,1,1,1,3400,4249,2,3.5,3,1.5
1,5,1,2,49,0,00001.jpg,1,1,0,0,1,3500,1759,2,3.5,3,1.5
1,5,1,2,50,0,01110.jpg,2,2,0,1,1,3600,2593,2,3.5,3,1.5
1,5,1,2,51,0,00111.jpg,2,2,0,1,1,3700,2194,2,3.5,3,1.5
1,5,1,2,52,0,01110.jpg,2,2,0,1,1,3800,2034,2,3.5,3,1.5
1,5,1,2,53,0,11010.jpg,2,2,0,1,1,3900,2666,2,3.5,3,1.5
1,5,1,2,54,0,10000.jpg,1,1,0,0,1,4000,1864,2,3.5,3,1.5
1,5,1,2,55,0,10001.jpg,1,1,0,0,1,4100,1807,2,3.5,3,1.5
1,5,1,2,56,0,00010.jpg,2,2,0,1,1,4200,1519,2,3.5,3,1.5
1,5,1,2,57,0,00101.jpg,1,1,0,0,1,4300,5083,2,3.5,3,1.5
1,5,1,2,58,0,11001.jpg,1,1,0,0,1,4400,2991,2,3.5,3,1.5
1,5,1,2,59,0,01011.jpg,2,2,0,1,1,4500,2906,2,3.5,3,1.5
1,5,1,2,60,0,11111.jpg,4,4,1,1,1,4600,4991,2,3.5,3,1.5
1,5,1,2,61,0,00110.jpg,2,2,0,1,1,4700,1910,2,3.5,3,1.5
1,5,1,2,62,0,11101.jpg,3,3,1,0,1,4800,4546,2,3.5,3,1.5
1,5,1,2,63,0,01100.jpg,1,1,0,0,1,4900,3239,2,3.5,3,1.5
1,5,1,2,64,0,10110.jpg,4,4,1,1,1,5000,2517,2,3.5,3,1.5
1,5,1,3,65,0,10011.jpg,2,2,0,1,1,5100,5159,2,3.5,3,1.5
1,5,1,3,66,0,01001.jpg,1,1,0,0,1,5200,2642,2,3.5,3,1.5
1,5,1,3,67,0,00100.jpg,1,1,0,0,1,5300,2696,2,3.5,3,1.5
1,5,1,3,68,0,01010.jpg,2,2,0,1,1,5400,1862,2,3.5,3,1.5
1,5,1,3,69,0,00000.jpg,1,1,0,0,1,5500,1604,2,3.5,3,1.5
1,5,1,3,70,0,10001.jpg,1,1,0,0,1,5600,1932,2,3.5,3,1.5
1,5,1,3,71,0,11011.jpg,2,2,0,1,1,5700,2945,2,3.5,3,1.5
1,5,1,3,72,0,10101.jpg,3,3,1,0,1,5800,5138,2,3.5,3,1.5
1,5,1,3,73,0,11110.jpg,4,4,1,1,1,5900,3239,2,3.5,3,1.5
1,5,1,3,74,0,11100.jpg,3,3,1,0,1,6000,2295,2,3.5,3,1.5
1,5,1,3,75,0,10111.jpg,4,4,1,1,1,6100,4122,2,3.5,3,1.5
1,5,1,3,76,0,01101.jpg,1,1,0,0,1,6200,2157,2,3.5,3,1.5
1,5,1,3,77,0,00000.jpg,1,1,0,0,1,6300,1823,2,3.5,3,1.5
1,5,1,3,78,0,00101.jpg,1,1,0,0,1,6400,1952,2,3.5,3,1.5
1,5,1,3,79,0,10010.jpg,2,2,0,1,1,6500,3051,2,3.5,3,1.5
1,5,1,3,80,0,11011.jpg,2,2,0,1,1,6600,1721,2,3.5,3,1.5
1,5,1,3,81,0,01101.jpg,1,1,0,0,1,6700,3349,2,3.5,3,1.5
1,5,1,3,82,0,01001.jpg,1,1,0,0,1,6800,2879,2,3.5,3,1.5
1,5,1,3,83,0,01000.jpg,1,1,0,0,1,6900,1317,2,3.5,3,1.5
1,5,1,3,84,0,01111.jpg,2,2,0,1,1,7000,5562,2,3.5,3,1.5
1,5,1,3,85,0,01000.jpg,1,1,0,0,1,7100,2027,2,3.5,3,1.5
1,5,1,3,86,0,11001.jpg,1,1,0,0,1,7200,5667,2,3.5,3,1.5
1,5,1,3,87,0,10001.jpg,1,1,0,0,1,7300,1857,2,3.5,3,1.5
1,5,1,3,88,0,00010.jpg,2,2,0,1,1,7400,2153,2,3.5,3,1.5
1,5,1,3,89,0,00101.jpg,1,1,0,0,1,7500,5370,2,3.5,3,1.5
1,5,1,3,90,0,10110.jpg,4,4,1,1,1,7600,3445,2,3.5,3,1.5
1,5,1,3,91,0,00011.jpg,2,2,0,1,1,7700,2051,2,3.5,3,1.5
1,5,1,3,92,0,11100.jpg,3,3,1,0,1,7800,3577,2,3.5,3,1.5
1,5,1,3,93,0,00010.jpg,2,2,0,1,1,7900,2148,2,3.5,3,1.5
1,5,1,3,94,0,00111.jpg,2,2,0,1,1,8000,4093,2,3.5,3,1.5
1,5,1,3,95,0,01011.jpg,2,2,0,1,1,8100,1594,2,3.5,3,1.5
1,5,1,3,96,0,10110.jpg,4,4,1,1,1,8200,2196,2,3.5,3,1.5
1,5,1,0,97,1,11011pt.jpg,2,1,0,1,0,8200,14047,2,3.5,3,1.5
1,5,1,0,98,1,10101pt.jpg,3,4,1,0,0,8200,21811,2,3.5,3,1.5
1,5,1,0,99,1,11111pt.jpg,4,3,1,1,0,8200,16712,2,3.5,3,1.5
1,5,1,0,100,1,00101pt.jpg,1,2,0,0,0,8200,8850,2,3.5,3,1.5
1,5,1,0,101,1,01010pt.jpg,2,2,0,1,1,8200,5349,2,3.5,3,1.5
1,5,1,0,102,1,00111pt.jpg,2,1,0,1,0,8200,26565,2,3.5,3,1.5
1,5,1,0,103,1,11110pt.jpg,4,4,1,1,1,8200,11988,2,3.5,3,1.5
1,5,1,0,104,1,01000pt.jpg,1,2,0,0,0,8200,5179,2,3.5,3,1.5
1,5,2,1,1,0,10110.jpg,4,2,1,1,0,-100,60162,2,3.5,3,1.5
1,5,2,1,2,0,11011.jpg,4,2,1,1,0,-200,5135,2,3.5,3,1.5
1,5,2,1,3,0,00111.jpg,3,2,1,0,0,-300,10626,2,3.5,3,1.5
1,5,2,1,4,0,10111.jpg,4,4,1,1,1,-200,11977,2,3.5,3,1.5
1,5,2,1,5,0,01110.jpg,4,2,1,1,0,-300,13018,2,3.5,3,1.5
1,5,2,1,6,0,10010.jpg,3,3,1,0,1,-200,4487,2,3.5,3,1.5
1,5,2,1,7,0,00101.jpg,1,2,0,0,0,-300,2813,2,3.5,3,1.5
1,5,2,1,8,0,00001.jpg,1,1,0,0,1,-200,4300,2,3.5,3,1.5
1,5,2,1,9,0,11110.jpg,4,4,1,1,1,-100,14073,2,3.5,3,1.5
1,5,2,1,10,0,00000.jpg,1,2,0,0,0,-200,5221,2,3.5,3,1.5
1,5,2,1,11,0,00010.jpg,3,3,1,0,1,-100,18125,2,3.5,3,1.5
1,5,2,1,12,0,01010.jpg,3,3,1,0,1,0,20929,2,3.5,3,1.5
1,5,2,1,13,0,01101.jpg,2,1,0,1,0,-100,23982,2,3.5,3,1.5
1,5,2,1,14,0,01100.jpg,2,2,0,1,1,0,10542,2,3.5,3,1.5
1,5,2,1,15,0,11111.jpg,4,4,1,1,1,100,4257,2,3.5,3,1.5
1,5,2,1,16,0,01010.jpg,3,3,1,0,1,200,6406,2,3.5,3,1.5
1,5,2,1,17,0,10111.jpg,4,4,1,1,1,300,3791,2,3.5,3,1.5
1,5,2,1,18,0,00011.jpg,3,3,1,0,1,400,6192,2,3.5,3,1.5
1,5,2,1,19,0,10111.jpg,4,4,1,1,1,500,2697,2,3.5,3,1.5
1,5,2,1,20,0,00001.jpg,1,1,0,0,1,600,8636,2,3.5,3,1.5
1,5,2,1,21,0,00111.jpg,3,4,1,0,0,500,2548,2,3.5,3,1.5
1,5,2,1,22,0,10101.jpg,2,2,0,1,1,600,12967,2,3.5,3,1.5
1,5,2,1,23,0,01000.jpg,1,1,0,0,1,700,4993,2,3.5,3,1.5
1,5,2,1,24,0,01101.jpg,2,2,0,1,1,800,4107,2,3.5,3,1.5
1,5,2,1,25,0,00010.jpg,3,3,1,0,1,900,2559,2,3.5,3,1.5
1,5,2,1,26,0,10100.jpg,2,2,0,1,1,1000,5273,2,3.5,3,1.5
1,5,2,1,27,0,11001.jpg,2,1,0,1,0,900,2231,2,3.5,3,1.5
1,5,2,1,28,0,11111.jpg,4,4,1,1,1,1000,26110,2,3.5,3,1.5
1,5,2,1,29,0,00101.jpg,1,2,0,0,0,900,3321,2,3.5,3,1.5
1,5,2,1,30,0,11100.jpg,2,2,0,1,1,1000,4565,2,3.5,3,1.5
1,5,2,1,31,0,11001.jpg,2,1,0,1,0,900,4079,2,3.5,3,1.5
1,5,2,1,32,0,01010.jpg,3,3,1,0,1,1000,20828,2,3.5,3,1.5
1,5,2,2,33,0,01001.jpg,1,2,0,0,0,900,46077,2,3.5,3,1.5
1,5,2,2,34,0,11100.jpg,2,2,0,1,1,1000,4281,2,3.5,3,1.5
1,5,2,2,35,0,00011.jpg,3,3,1,0,1,1100,3719,2,3.5,3,1.5
1,5,2,2,36,0,10000.jpg,1,2,0,0,0,1000,14796,2,3.5,3,1.5
1,5,2,2,37,0,10101.jpg,2,2,0,1,1,1100,3763,2,3.5,3,1.5
1,5,2,2,38,0,10000.jpg,1,1,0,0,1,1200,7566,2,3.5,3,1.5
1,5,2,2,39,0,10000.jpg,1,1,0,0,1,1300,1568,2,3.5,3,1.5
1,5,2,2,40,0,10100.jpg,2,2,0,1,1,1400,3450,2,3.5,3,1.5
1,5,2,2,41,0,10110.jpg,4,4,1,1,1,1500,2288,2,3.5,3,1.5
1,5,2,2,42,0,11101.jpg,2,2,0,1,1,1600,11429,2,3.5,3,1.5
1,5,2,2,43,0,10011.jpg,3,3,1,0,1,1700,3372,2,3.5,3,1.5
1,5,2,2,44,0,10010.jpg,3,3,1,0,1,1800,2135,2,3.5,3,1.5
1,5,2,2,45,0,11000.jpg,2,1,0,1,0,1700,14137,2,3.5,3,1.5
1,5,2,2,46,0,11000.jpg,2,2,0,1,1,1800,7542,2,3.5,3,1.5
1,5,2,2,47,0,10001.jpg,1,1,0,0,1,1900,10242,2,3.5,3,1.5
1,5,2,2,48,0,10001.jpg,1,1,0,0,1,2000,1457,2,3.5,3,1.5
1,5,2,2,49,0,11111.jpg,4,4,1,1,1,2100,2623,2,3.5,3,1.5
1,5,2,2,50,0,01100.jpg,2,2,0,1,1,2200,10301,2,3.5,3,1.5
1,5,2,2,51,0,00110.jpg,3,4,1,0,0,2100,2763,2,3.5,3,1.5
1,5,2,2,52,0,11100.jpg,2,2,0,1,1,2200,9756,2,3.5,3,1.5
1,5,2,2,53,0,00100.jpg,1,2,0,0,0,2100,4216,2,3.5,3,1.5
1,5,2,2,54,0,11001.jpg,2,2,0,1,1,2200,30526,2,3.5,3,1.5
1,5,2,2,55,0,00011.jpg,3,3,1,0,1,2300,6466,2,3.5,3,1.5
1,5,2,2,56,0,01111.jpg,4,3,1,1,0,2200,3969,2,3.5,3,1.5
1,5,2,2,57,0,11000.jpg,2,2,0,1,1,2300,15104,2,3.5,3,1.5
1,5,2,2,58,0,11101.jpg,2,1,0,1,0,2200,28845,2,3.5,3,1.5
1,5,2,2,59,0,01111.jpg,4,4,1,1,1,2300,5363,2,3.5,3,1.5
1,5,2,2,60,0,10011.jpg,3,3,1,0,1,2400,3181,2,3.5,3,1.5
1,5,2,2,61,0,01101.jpg,2,2,0,1,1,2500,4415,2,3.5,3,1.5
1,5,2,2,62,0,01011.jpg,3,3,1,0,1,2600,1958,2,3.5,3,1.5
1,5,2,2,63,0,01001.jpg,1,2,0,0,0,2500,2713,2,3.5,3,1.5
1,5,2,2,64,0,01110.jpg,4,4,1,1,1,2600,5005,2,3.5,3,1.5
1,5,2,3,65,0,10100.jpg,2,2,0,1,1,2700,23013,2,3.5,3,1.5
1,5,2,3,66,0,01000.jpg,1,2,0,0,0,2600,2996,2,3.5,3,1.5
1,5,2,3,67,0,01001.jpg,1,1,0,0,1,2700,5621,2,3.5,3,1.5
1,5,2,3,68,0,00101.jpg,1,2,0,0,0,2600,5501,2,3.5,3,1.5
1,5,2,3,69,0,00100.jpg,1,1,0,0,1,2700,5024,2,3.5,3,1.5
1,5,2,3,70,0,00110.jpg,3,4,1,0,0,2600,7929,2,3.5,3,1.5
1,5,2,3,71,0,01011.jpg,3,3,1,0,1,2700,7909,2,3.5,3,1.5
1,5,2,3,72,0,00110.jpg,3,3,1,0,1,2800,18641,2,3.5,3,1.5
1,5,2,3,73,0,01111.jpg,4,3,1,1,0,2700,2329,2,3.5,3,1.5
1,5,2,3,74,0,10101.jpg,2,2,0,1,1,2800,14891,2,3.5,3,1.5
1,5,2,3,75,0,11011.jpg,4,3,1,1,0,2700,2970,2,3.5,3,1.5
1,5,2,3,76,0,00100.jpg,1,2,0,0,0,2600,25960,2,3.5,3,1.5
1,5,2,3,77,0,11010.jpg,4,3,1,1,0,2500,5338,2,3.5,3,1.5
1,5,2,3,78,0,10110.jpg,4,4,1,1,1,2600,6612,2,3.5,3,1.5
1,5,2,3,79,0,11010.jpg,4,3,1,1,0,2500,4666,2,3.5,3,1.5
1,5,2,3,80,0,11110.jpg,4,4,1,1,1,2600,3998,2,3.5,3,1.5
1,5,2,3,81,0,11010.jpg,4,4,1,1,1,2700,8207,2,3.5,3,1.5
1,5,2,3,82,0,01000.jpg,1,1,0,0,1,2800,11294,2,3.5,3,1.5
1,5,2,3,83,0,11011.jpg,4,4,1,1,1,2900,5650,2,3.5,3,1.5
1,5,2,3,84,0,00001.jpg,1,1,0,0,1,3000,10040,2,3.5,3,1.5
1,5,2,3,85,0,11101.jpg,2,2,0,1,1,3100,5351,2,3.5,3,1.5
1,5,2,3,86,0,11110.jpg,4,4,1,1,1,3200,4861,2,3.5,3,1.5
1,5,2,3,87,0,00010.jpg,3,3,1,0,1,3300,15907,2,3.5,3,1.5
1,5,2,3,88,0,01100.jpg,2,1,0,1,0,3200,22400,2,3.5,3,1.5
1,5,2,3,89,0,10010.jpg,3,4,1,0,0,3100,4576,2,3.5,3,1.5
1,5,2,3,90,0,01110.jpg,4,4,1,1,1,3200,7498,2,3.5,3,1.5
1,5,2,3,91,0,10011.jpg,3,4,1,0,0,3100,6678,2,3.5,3,1.5
1,5,2,3,92,0,00111.jpg,3,4,1,0,0,3000,20004,2,3.5,3,1.5
1,5,2,3,93,0,10001.jpg,1,2,0,0,0,2900,5746,2,3.5,3,1.5
1,5,2,3,94,0,00000.jpg,1,1,0,0,1,3000,4526,2,3.5,3,1.5
1,5,2,3,95,0,00000.jpg,1,1,0,0,1,3100,2954,2,3.5,3,1.5
1,5,2,3,96,0,01011.jpg,3,4,1,0,0,3000,4652,2,3.5,3,1.5
1,5,2,0,97,1,01000pt.jpg,1,2,0,0,0,3000,4652,2,3.5,3,1.5
1,5,2,0,98,1,01010pt.jpg,3,2,1,0,0,3000,4652,2,3.5,3,1.5
1,5,2,0,99,1,10101pt.jpg,2,4,0,1,0,3000,4652,2,3.5,3,1.5
1,5,2,0,100,1,11011pt.jpg,4,4,1,1,1,3000,4652,2,3.5,3,1.5
1,5,2,0,101,1,11111pt.jpg,4,3,1,1,0,3000,4652,2,3.5,3,1.5
1,5,2,0,102,1,00101pt.jpg,1,1,0,0,1,3000,4652,2,3.5,3,1.5
1,5,2,0,103,1,00111pt.jpg,3,3,1,0,1,3000,4652,2,3.5,3,1.5
1,5,2,0,104,1,11110pt.jpg,4,4,1,1,1,3000,4652,2,3.5,3,1.5
1,5,3,1,1,0,01110.jpg,2,1,0,1,0,-100,38610,2,3.5,3,1.5
1,5,3,1,2,0,10110.jpg,2,2,0,1,1,0,7483,2,3.5,3,1.5
1,5,3,1,3,0,10100.jpg,1,2,0,0,0,-100,21175,2,3.5,3,1.5
1,5,3,1,4,0,00000.jpg,1,1,0,0,1,0,4697,2,3.5,3,1.5
1,5,3,1,5,0,00011.jpg,3,2,1,0,0,-100,2870,2,3.5,3,1.5
1,5,3,1,6,0,00100.jpg,1,2,0,0,0,-200,4291,2,3.5,3,1.5
1,5,3,1,7,0,01011.jpg,3,3,1,0,1,-100,18368,2,3.5,3,1.5
1,5,3,1,8,0,00001.jpg,1,1,0,0,1,0,6971,2,3.5,3,1.5
1,5,3,1,9,0,00101.jpg,1,2,0,0,0,-100,14156,2,3.5,3,1.5
1,5,3,1,10,0,11011.jpg,4,3,1,1,0,-200,7303,2,3.5,3,1.5
1,5,3,1,11,0,10011.jpg,3,3,1,0,1,-100,13929,2,3.5,3,1.5
1,5,3,1,12,0,00001.jpg,1,1,0,0,1,0,6972,2,3.5,3,1.5
1,5,3,1,13,0,11110.jpg,2,4,0,1,0,-100,8743,2,3.5,3,1.5
1,5,3,1,14,0,10000.jpg,1,1,0,0,1,0,10329,2,3.5,3,1.5
1,5,3,1,15,0,11001.jpg,2,2,0,1,1,100,13205,2,3.5,3,1.5
1,5,3,1,16,0,01000.jpg,1,4,0,0,0,0,27261,2,3.5,3,1.5
1,5,3,1,17,0,10101.jpg,2,1,0,1,0,-100,25579,2,3.5,3,1.5
1,5,3,1,18,0,00010.jpg,1,3,0,0,0,-200,12949,2,3.5,3,1.5
1,5,3,1,19,0,10011.jpg,3,3,1,0,1,-100,8744,2,3.5,3,1.5
1,5,3,1,20,0,01101.jpg,2,2,0,1,1,0,6498,2,3.5,3,1.5
1,5,3,1,21,0,01000.jpg,1,2,0,0,0,-100,6631,2,3.5,3,1.5
1,5,3,1,22,0,10001.jpg,1,2,0,0,0,-200,8799,2,3.5,3,1.5
1,5,3,1,23,0,00100.jpg,1,2,0,0,0,-300,16399,2,3.5,3,1.5
1,5,3,1,24,0,00000.jpg,1,2,0,0,0,-400,5480,2,3.5,3,1.5
1,5,3,1,25,0,00101.jpg,1,1,0,0,1,-300,3165,2,3.5,3,1.5
1,5,3,1,26,0,01111.jpg,4,3,1,1,0,-400,5680,2,3.5,3,1.5
1,5,3,1,27,0,01010.jpg,1,2,0,0,0,-500,5492,2,3.5,3,1.5
1,5,3,1,28,0,10111.jpg,4,2,1,1,0,-600,11143,2,3.5,3,1.5
1,5,3,1,29,0,01110.jpg,2,2,0,1,1,-500,21377,2,3.5,3,1.5
1,5,3,1,30,0,11011.jpg,4,1,1,1,0,-600,9971,2,3.5,3,1.5
1,5,3,1,31,0,00110.jpg,1,4,0,0,0,-700,10306,2,3.5,3,1.5
1,5,3,1,32,0,10000.jpg,1,1,0,0,1,-600,31398,2,3.5,3,1.5
1,5,3,2,33,0,11010.jpg,2,3,0,1,0,-700,6534,2,3.5,3,1.5
1,5,3,2,34,0,00111.jpg,3,4,1,0,0,-800,11650,2,3.5,3,1.5
1,5,3,2,35,0,01001.jpg,1,3,0,0,0,-900,13897,2,3.5,3,1.5
1,5,3,2,36,0,01111.jpg,4,2,1,1,0,-1000,5941,2,3.5,3,1.5
1,5,3,2,37,0,10010.jpg,1,3,0,0,0,-1100,15917,2,3.5,3,1.5
1,5,3,2,38,0,00100.jpg,1,2,0,0,0,-1200,9529,2,3.5,3,1.5
1,5,3,2,39,0,00111.jpg,3,1,1,0,0,-1300,6766,2,3.5,3,1.5
1,5,3,2,40,0,11110.jpg,2,4,0,1,0,-1400,1687,2,3.5,3,1.5
1,5,3,2,41,0,00110.jpg,1,3,0,0,0,-1500,2108,2,3.5,3,1.5
1,5,3,2,42,0,00111.jpg,3,2,1,0,0,-1600,3031,2,3.5,3,1.5
1,5,3,2,43,0,01100.jpg,2,3,0,1,0,-1700,1807,2,3.5,3,1.5
1,5,3,2,44,0,10000.jpg,1,1,0,0,1,-1600,3944,2,3.5,3,1.5
1,5,3,2,45,0,10010.jpg,1,3,0,0,0,-1700,3354,2,3.5,3,1.5
1,5,3,2,46,0,11101.jpg,2,2,0,1,1,-1600,1837,2,3.5,3,1.5
1,5,3,2,47,0,00010.jpg,1,3,0,0,0,-1700,6700,2,3.5,3,1.5
1,5,3,2,48,0,10100.jpg,1,1,0,0,1,-1600,2344,2,3.5,3,1.5
1,5,3,2,49,0,11110.jpg,2,3,0,1,0,-1700,4275,2,3.5,3,1.5
1,5,3,2,50,0,01011.jpg,3,3,1,0,1,-1600,3840,2,3.5,3,1.5
1,5,3,2,51,0,10001.jpg,1,1,0,0,1,-1500,2448,2,3.5,3,1.5
1,5,3,2,52,0,11000.jpg,1,4,0,0,0,-1600,12672,2,3.5,3,1.5
1,5,3,2,53,0,11010.jpg,2,3,0,1,0,-1700,13268,2,3.5,3,1.5
1,5,3,2,54,0,10110.jpg,2,2,0,1,1,-1600,7283,2,3.5,3,1.5
1,5,3,2,55,0,00011.jpg,3,1,1,0,0,-1700,10199,2,3.5,3,1.5
1,5,3,2,56,0,01100.jpg,2,3,0,1,0,-1800,5823,2,3.5,3,1.5
1,5,3,2,57,0,01110.jpg,2,3,0,1,0,-1900,3568,2,3.5,3,1.5
1,5,3,2,58,0,00010.jpg,1,2,0,0,0,-2000,7585,2,3.5,3,1.5
1,5,3,2,59,0,00110.jpg,1,2,0,0,0,-2100,4083,2,3.5,3,1.5
1,5,3,2,60,0,01111.jpg,4,2,1,1,0,-2200,23471,2,3.5,3,1.5
1,5,3,2,61,0,10101.jpg,2,1,0,1,0,-2300,3579,2,3.5,3,1.5
1,5,3,2,62,0,11100.jpg,2,2,0,1,1,-2200,4252,2,3.5,3,1.5
1,5,3,2,63,0,01010.jpg,1,3,0,0,0,-2300,7106,2,3.5,3,1.5
1,5,3,2,64,0,10110.jpg,2,4,0,1,0,-2400,12990,2,3.5,3,1.5
1,5,3,3,65,0,01101.jpg,2,3,0,1,0,-2500,20232,2,3.5,3,1.5
1,5,3,3,66,0,11111.jpg,4,4,1,1,1,-2400,4614,2,3.5,3,1.5
1,5,3,3,67,0,00000.jpg,1,1,0,0,1,-2300,2707,2,3.5,3,1.5
1,5,3,3,68,0,11100.jpg,2,3,0,1,0,-2400,6567,2,3.5,3,1.5
1,5,3,3,69,0,11111.jpg,4,4,1,1,1,-2300,5378,2,3.5,3,1.5
1,5,3,3,70,0,11111.jpg,4,4,1,1,1,-2200,2105,2,3.5,3,1.5
1,5,3,3,71,0,01001.jpg,1,2,0,0,0,-2300,6213,2,3.5,3,1.5
1,5,3,3,72,0,11001.jpg,2,1,0,1,0,-2400,5045,2,3.5,3,1.5
1,5,3,3,73,0,10111.jpg,4,4,1,1,1,-2300,2748,2,3.5,3,1.5
1,5,3,3,74,0,01011.jpg,3,3,1,0,1,-2200,5278,2,3.5,3,1.5
1,5,3,3,75,0,01100.jpg,2,2,0,1,1,-2100,2195,2,3.5,3,1.5
1,5,3,3,76,0,11011.jpg,4,3,1,1,0,-2200,4676,2,3.5,3,1.5
1,5,3,3,77,0,11000.jpg,1,3,0,0,0,-2300,16704,2,3.5,3,1.5
1,5,3,3,78,0,11101.jpg,2,2,0,1,1,-2200,7611,2,3.5,3,1.5
1,5,3,3,79,0,01101.jpg,2,2,0,1,1,-2100,7372,2,3.5,3,1.5
1,5,3,3,80,0,10011.jpg,3,3,1,0,1,-2000,7006,2,3.5,3,1.5
1,5,3,3,81,0,11001.jpg,2,1,0,1,0,-2100,5182,2,3.5,3,1.5
1,5,3,3,82,0,11100.jpg,2,2,0,1,1,-2000,3592,2,3.5,3,1.5
1,5,3,3,83,0,10100.jpg,1,2,0,0,0,-2100,7721,2,3.5,3,1.5
1,5,3,3,84,0,11101.jpg,2,2,0,1,1,-2000,4046,2,3.5,3,1.5
1,5,3,3,85,0,00001.jpg,1,1,0,0,1,-1900,2259,2,3.5,3,1.5
1,5,3,3,86,0,00101.jpg,1,1,0,0,1,-1800,2810,2,3.5,3,1.5
1,5,3,3,87,0,11010.jpg,2,3,0,1,0,-1900,4060,2,3.5,3,1.5
1,5,3,3,88,0,10001.jpg,1,1,0,0,1,-1800,6104,2,3.5,3,1.5
1,5,3,3,89,0,01001.jpg,1,2,0,0,0,-1900,6070,2,3.5,3,1.5
1,5,3,3,90,0,10111.jpg,4,4,1,1,1,-1800,2883,2,3.5,3,1.5
1,5,3,3,91,0,00011.jpg,3,3,1,0,1,-1700,6208,2,3.5,3,1.5
1,5,3,3,92,0,11000.jpg,1,2,0,0,0,-1800,2816,2,3.5,3,1.5
1,5,3,3,93,0,01010.jpg,1,3,0,0,0,-1900,4127,2,3.5,3,1.5
1,5,3,3,94,0,10010.jpg,1,3,0,0,0,-2000,3235,2,3.5,3,1.5
1,5,3,3,95,0,01000.jpg,1,2,0,0,0,-2100,7385,2,3.5,3,1.5
1,5,3,3,96,0,10101.jpg,2,2,0,1,1,-2000,6490,2,3.5,3,1.5
1,5,3,0,97,1,11111pt.jpg,4,3,1,1,0,-2000,6490,2,3.5,3,1.5
1,5,3,0,98,1,11110pt.jpg,2,3,0,1,0,-2000,6490,2,3.5,3,1.5
1,5,3,0,99,1,01010pt.jpg,1,2,0,0,0,-2000,6490,2,3.5,3,1.5
1,5,3,0,100,1,01000pt.jpg,1,1,0,0,1,-2000,6490,2,3.5,3,1.5
1,5,3,0,101,1,11011pt.jpg,4,3,1,1,0,-2000,6490,2,3.5,3,1.5
1,5,3,0,102,1,10101pt.jpg,2,2,0,1,1,-2000,6490,2,3.5,3,1.5
1,5,3,0,103,1,00111pt.jpg,3,2,1,0,0,-2000,6490,2,3.5,3,1.5
1,5,3,0,104,1,00101pt.jpg,1,2,0,0,0,-2000,6490,2,3.5,3,1.5
1,6,1,1,1,0,10110.jpg,4,3,1,1,0,-100,28755,2.5,3.5,1.5,1
1,6,1,1,2,0,00000.jpg,1,2,0,0,0,-200,23915,2.5,3.5,1.5,1
1,6,1,1,3,0,11111.jpg,4,4,1,1,1,-100,23599,2.5,3.5,1.5,1
1,6,1,1,4,0,10010.jpg,2,3,0,1,0,-200,11045,2.5,3.5,1.5,1
1,6,1,1,5,0,11011.jpg,2,4,0,1,0,-300,3588,2.5,3.5,1.5,1
1,6,1,1,6,0,00110.jpg,2,2,0,1,1,-200,30518,2.5,3.5,1.5,1
1,6,1,1,7,0,01111.jpg,2,2,0,1,1,-100,13434,2.5,3.5,1.5,1
1,6,1,1,8,0,11100.jpg,3,1,1,0,0,-200,20328,2.5,3.5,1.5,1
1,6,1,1,9,0,01111.jpg,2,2,0,1,1,-100,6485,2.5,3.5,1.5,1
1,6,1,1,10,0,10001.jpg,1,3,0,0,0,-200,4177,2.5,3.5,1.5,1
1,6,1,1,11,0,01010.jpg,2,2,0,1,1,-100,6076,2.5,3.5,1.5,1
1,6,1,1,12,0,01110.jpg,2,2,0,1,1,0,3968,2.5,3.5,1.5,1
1,6,1,1,13,0,11000.jpg,1,1,0,0,1,100,51674,2.5,3.5,1.5,1
1,6,1,1,14,0,11001.jpg,1,3,0,0,0,0,23760,2.5,3.5,1.5,1
1,6,1,1,15,0,11101.jpg,3,4,1,0,0,-100,26905,2.5,3.5,1.5,1
1,6,1,1,16,0,10100.jpg,3,3,1,0,1,0,3365,2.5,3.5,1.5,1
1,6,1,1,17,0,11000.jpg,1,1,0,0,1,100,4440,2.5,3.5,1.5,1
1,6,1,1,18,0,10100.jpg,3,3,1,0,1,200,3127,2.5,3.5,1.5,1
1,6,1,1,19,0,00010.jpg,2,2,0,1,1,300,24403,2.5,3.5,1.5,1
1,6,1,1,20,0,10111.jpg,4,4,1,1,1,400,8332,2.5,3.5,1.5,1
1,6,1,1,21,0,00110.jpg,2,2,0,1,1,500,15510,2.5,3.5,1.5,1
1,6,1,1,22,0,11111.jpg,4,4,1,1,1,600,3680,2.5,3.5,1.5,1
1,6,1,1,23,0,10110.jpg,4,4,1,1,1,700,2437,2.5,3.5,1.5,1
1,6,1,1,24,0,01011.jpg,2,2,0,1,1,800,3267,2.5,3.5,1.5,1
1,6,1,1,25,0,01110.jpg,2,2,0,1,1,900,2241,2.5,3.5,1.5,1
1,6,1,1,26,0,11101.jpg,3,3,1,0,1,1000,7671,2.5,3.5,1.5,1
1,6,1,1,27,0,11110.jpg,4,4,1,1,1,1100,2038,2.5,3.5,1.5,1
1,6,1,1,28,0,00100.jpg,1,1,0,0,1,1200,3197,2.5,3.5,1.5,1
1,6,1,1,29,0,11110.jpg,4,4,1,1,1,1300,3637,2.5,3.5,1.5,1
1,6,1,1,30,0,01100.jpg,1,1,0,0,1,1400,1819,2.5,3.5,1.5,1
1,6,1,1,31,0,00111.jpg,2,2,0,1,1,1500,2874,2.5,3.5,1.5,1
1,6,1,1,32,0,11100.jpg,3,3,1,0,1,1600,3200,2.5,3.5,1.5,1
1,6,1,2,33,0,11011.jpg,2,4,0,1,0,1500,3163,2.5,3.5,1.5,1
1,6,1,2,34,0,01001.jpg,1,1,0,0,1,1600,20811,2.5,3.5,1.5,1
1,6,1,2,35,0,00101.jpg,1,1,0,0,1,1700,2228,2.5,3.5,1.5,1
1,6,1,2,36,0,01010.jpg,2,2,0,1,1,1800,2061,2.5,3.5,1.5,1
1,6,1,2,37,0,10010.jpg,2,4,0,1,0,1700,7266,2.5,3.5,1.5,1
1,6,1,2,38,0,10010.jpg,2,2,0,1,1,1800,39009,2.5,3.5,1.5,1
1,6,1,2,39,0,00000.jpg,1,1,0,0,1,1900,2017,2.5,3.5,1.5,1
1,6,1,2,40,0,00110.jpg,2,2,0,1,1,2000,2377,2.5,3.5,1.5,1
1,6,1,2,41,0,00011.jpg,2,2,0,1,1,2100,2347,2.5,3.5,1.5,1
1,6,1,2,42,0,10100.jpg,3,3,1,0,1,2200,3332,2.5,3.5,1.5,1
1,6,1,2,43,0,01010.jpg,2,2,0,1,1,2300,2777,2.5,3.5,1.5,1
1,6,1,2,44,0,10101.jpg,3,3,1,0,1,2400,1962,2.5,3.5,1.5,1
1,6,1,2,45,0,10111.jpg,4,4,1,1,1,2500,3164,2.5,3.5,1.5,1
1,6,1,2,46,0,01011.jpg,2,2,0,1,1,2600,2558,2.5,3.5,1.5,1
1,6,1,2,47,0,00100.jpg,1,1,0,0,1,2700,1393,2.5,3.5,1.5,1
1,6,1,2,48,0,01000.jpg,1,1,0,0,1,2800,2250,2.5,3.5,1.5,1
1,6,1,2,49,0,01101.jpg,1,1,0,0,1,2900,1561,2.5,3.5,1.5,1
1,6,1,2,50,0,11010.jpg,2,2,0,1,1,3000,6475,2.5,3.5,1.5,1
1,6,1,2,51,0,11010.jpg,2,2,0,1,1,3100,2736,2.5,3.5,1.5,1
1,6,1,2,52,0,01000.jpg,1,1,0,0,1,3200,4427,2.5,3.5,1.5,1
1,6,1,2,53,0,01110.jpg,2,2,0,1,1,3300,2019,2.5,3.5,1.5,1
1,6,1,2,54,0,00000.jpg,1,1,0,0,1,3400,1563,2.5,3.5,1.5,1
1,6,1,2,55,0,00011.jpg,2,2,0,1,1,3500,2590,2.5,3.5,1.5,1
1,6,1,2,56,0,10011.jpg,2,2,0,1,1,3600,9198,2.5,3.5,1.5,1
1,6,1,2,57,0,00010.jpg,2,2,0,1,1,3700,1751,2.5,3.5,1.5,1
1,6,1,2,58,0,00011.jpg,2,2,0,1,1,3800,1850,2.5,3.5,1.5,1
1,6,1,2,59,0,00101.jpg,1,1,0,0,1,3900,1313,2.5,3.5,1.5,1
1,6,1,2,60,0,01100.jpg,1,1,0,0,1,4000,2093,2.5,3.5,1.5,1
1,6,1,2,61,0,10011.jpg,2,2,0,1,1,4100,4123,2.5,3.5,1.5,1
1,6,1,2,62,0,00111.jpg,2,2,0,1,1,4200,2390,2.5,3.5,1.5,1
1,6,1,2,63,0,00101.jpg,1,1,0,0,1,4300,1263,2.5,3.5,1.5,1
1,6,1,2,64,0,11010.jpg,2,2,0,1,1,4400,2334,2.5,3.5,1.5,1
1,6,1,3,65,0,10001.jpg,1,1,0,0,1,4500,2945,2.5,3.5,1.5,1
1,6,1,3,66,0,01100.jpg,1,1,0,0,1,4600,4862,2.5,3.5,1.5,1
1,6,1,3,67,0,01101.jpg,1,1,0,0,1,4700,3899,2.5,3.5,1.5,1
1,6,1,3,68,0,10111.jpg,4,4,1,1,1,4800,3312,2.5,3.5,1.5,1
1,6,1,3,69,0,11111.jpg,4,4,1,1,1,4900,1931,2.5,3.5,1.5,1
1,6,1,3,70,0,00111.jpg,2,2,0,1,1,5000,6534,2.5,3.5,1.5,1
1,6,1,3,71,0,11001.jpg,1,1,0,0,1,5100,2569,2.5,3.5,1.5,1
1,6,1,3,72,0,01011.jpg,2,2,0,1,1,5200,2338,2.5,3.5,1.5,1
1,6,1,3,73,0,10110.jpg,4,4,1,1,1,5300,2126,2.5,3.5,1.5,1
1,6,1,3,74,0,10011.jpg,2,2,0,1,1,5400,1977,2.5,3.5,1.5,1
1,6,1,3,75,0,11011.jpg,2,2,0,1,1,5500,1441,2.5,3.5,1.5,1
1,6,1,3,76,0,10101.jpg,3,1,1,0,0,5400,1592,2.5,3.5,1.5,1
1,6,1,3,77,0,11110.jpg,4,4,1,1,1,5500,5993,2.5,3.5,1.5,1
1,6,1,3,78,0,10001.jpg,1,1,0,0,1,5600,1976,2.5,3.5,1.5,1
1,6,1,3,79,0,00001.jpg,1,1,0,0,1,5700,8523,2.5,3.5,1.5,1
1,6,1,3,80,0,00010.jpg,2,2,0,1,1,5800,1582,2.5,3.5,1.5,1
1,6,1,3,81,0,10000.jpg,1,1,0,0,1,5900,1823,2.5,3.5,1.5,1
1,6,1,3,82,0,10000.jpg,1,1,0,0,1,6000,1880,2.5,3.5,1.5,1
1,6,1,3,83,0,00100.jpg,1,1,0,0,1,6100,4885,2.5,3.5,1.5,1
1,6,1,3,84,0,11100.jpg,3,3,1,0,1,6200,5427,2.5,3.5,1.5,1
1,6,1,3,85,0,00001.jpg,1,1,0,0,1,6300,2818,2.5,3.5,1.5,1
1,6,1,3,86,0,11001.jpg,1,1,0,0,1,6400,2322,2.5,3.5,1.5,1
1,6,1,3,87,0,01101.jpg,1,1,0,0,1,6500,2215,2.5,3.5,1.5,1
1,6,1,3,88,0,10101.jpg,3,3,1,0,1,6600,2918,2.5,3.5,1.5,1
1,6,1,3,89,0,01001.jpg,1,1,0,0,1,6700,3339,2.5,3.5,1.5,1
1,6,1,3,90,0,00001.jpg,1,1,0,0,1,6800,1304,2.5,3.5,1.5,1
1,6,1,3,91,0,01001.jpg,1,1,0,0,1,6900,1563,2.5,3.5,1.5,1
1,6,1,3,92,0,11101.jpg,3,3,1,0,1,7000,2269,2.5,3.5,1.5,1
1,6,1,3,93,0,01000.jpg,1,1,0,0,1,7100,2260,2.5,3.5,1.5,1
1,6,1,3,94,0,11000.jpg,1,1,0,0,1,7200,7898,2.5,3.5,1.5,1
1,6,1,3,95,0,01111.jpg,2,2,0,1,1,7300,3167,2.5,3.5,1.5,1
1,6,1,3,96,0,10000.jpg,1,1,0,0,1,7400,2849,2.5,3.5,1.5,1
1,6,1,0,97,1,11111pt.jpg,4,3,1,1,0,7400,24758,2.5,3.5,1.5,1
1,6,1,0,98,1,10101pt.jpg,3,2,1,0,0,7400,30093,2.5,3.5,1.5,1
1,6,1,0,99,1,11011pt.jpg,2,4,0,1,0,7400,39559,2.5,3.5,1.5,1
1,6,1,0,100,1,01010pt.jpg,2,2,0,1,1,7400,11583,2.5,3.5,1.5,1
1,6,1,0,101,1,11110pt.jpg,4,3,1,1,0,7400,10789,2.5,3.5,1.5,1
1,6,1,0,102,1,01000pt.jpg,1,1,0,0,1,7400,24147,2.5,3.5,1.5,1
1,6,1,0,103,1,00101pt.jpg,1,2,0,0,0,7400,12292,2.5,3.5,1.5,1
1,6,1,0,104,1,00111pt.jpg,2,1,0,1,0,7400,30757,2.5,3.5,1.5,1
1,6,2,1,1,0,10010.jpg,3,4,1,0,0,-100,30919,2.5,3.5,1.5,1
1,6,2,1,2,0,11001.jpg,2,1,0,1,0,-200,19267,2.5,3.5,1.5,1
1,6,2,1,3,0,00010.jpg,3,1,1,0,0,-300,22001,2.5,3.5,1.5,1
1,6,2,1,4,0,01101.jpg,2,4,0,1,0,-400,10426,2.5,3.5,1.5,1
1,6,2,1,5,0,01010.jpg,3,3,1,0,1,-300,14632,2.5,3.5,1.5,1
1,6,2,1,6,0,00000.jpg,1,4,0,0,0,-400,9833,2.5,3.5,1.5,1
1,6,2,1,7,0,00010.jpg,3,3,1,0,1,-300,16687,2.5,3.5,1.5,1
1,6,2,1,8,0,01000.jpg,1,2,0,0,0,-400,16741,2.5,3.5,1.5,1
1,6,2,1,9,0,10000.jpg,1,2,0,0,0,-500,36727,2.5,3.5,1.5,1
1,6,2,1,10,0,01110.jpg,4,3,1,1,0,-600,46345,2.5,3.5,1.5,1
1,6,2,1,11,0,00001.jpg,1,1,0,0,1,-500,14131,2.5,3.5,1.5,1
1,6,2,1,12,0,10001.jpg,1,1,0,0,1,-400,29055,2.5,3.5,1.5,1
1,6,2,1,13,0,11011.jpg,4,1,1,1,0,-500,33070,2.5,3.5,1.5,1
1,6,2,1,14,0,00111.jpg,3,3,1,0,1,-400,56530,2.5,3.5,1.5,1
1,6,2,1,15,0,10100.jpg,2,3,0,1,0,-500,16805,2.5,3.5,1.5,1
1,6,2,1,16,0,10010.jpg,3,4,1,0,0,-600,22461,2.5,3.5,1.5,1
1,6,2,1,17,0,11100.jpg,2,2,0,1,1,-500,22484,2.5,3.5,1.5,1
1,6,2,1,18,0,10100.jpg,2,2,0,1,1,-400,8136,2.5,3.5,1.5,1
1,6,2,1,19,0,01111.jpg,4,4,1,1,1,-300,6460,2.5,3.5,1.5,1
1,6,2,1,20,0,00000.jpg,1,3,0,0,0,-400,6145,2.5,3.5,1.5,1
1,6,2,1,21,0,10101.jpg,2,2,0,1,1,-300,4652,2.5,3.5,1.5,1
1,6,2,1,22,0,00101.jpg,1,4,0,0,0,-400,16250,2.5,3.5,1.5,1
1,6,2,1,23,0,00110.jpg,3,3,1,0,1,-300,28736,2.5,3.5,1.5,1
1,6,2,1,24,0,01011.jpg,3,3,1,0,1,-200,24452,2.5,3.5,1.5,1
1,6,2,1,25,0,10100.jpg,2,2,0,1,1,-100,5627,2.5,3.5,1.5,1
1,6,2,1,26,0,01111.jpg,4,3,1,1,0,-200,30059,2.5,3.5,1.5,1
1,6,2,1,27,0,01000.jpg,1,1,0,0,1,-100,10279,2.5,3.5,1.5,1
1,6,2,1,28,0,11001.jpg,2,1,0,1,0,-200,4388,2.5,3.5,1.5,1
1,6,2,1,29,0,11000.jpg,2,2,0,1,1,-100,6287,2.5,3.5,1.5,1
1,6,2,1,30,0,11010.jpg,4,2,1,1,0,-200,20059,2.5,3.5,1.5,1
1,6,2,1,31,0,01001.jpg,1,1,0,0,1,-100,5913,2.5,3.5,1.5,1
1,6,2,1,32,0,00111.jpg,3,4,1,0,0,-200,10796,2.5,3.5,1.5,1
1,6,2,2,33,0,11110.jpg,4,2,1,1,0,-300,13596,2.5,3.5,1.5,1
1,6,2,2,34,0,11101.jpg,2,2,0,1,1,-200,4180,2.5,3.5,1.5,1
1,6,2,2,35,0,01100.jpg,2,1,0,1,0,-300,9189,2.5,3.5,1.5,1
1,6,2,2,36,0,01011.jpg,3,3,1,0,1,-200,11822,2.5,3.5,1.5,1
1,6,2,2,37,0,00011.jpg,3,3,1,0,1,-100,5038,2.5,3.5,1.5,1
1,6,2,2,38,0,11111.jpg,4,4,1,1,1,0,6606,2.5,3.5,1.5,1
1,6,2,2,39,0,10101.jpg,2,2,0,1,1,100,4494,2.5,3.5,1.5,1
1,6,2,2,40,0,01010.jpg,3,3,1,0,1,200,2298,2.5,3.5,1.5,1
1,6,2,2,41,0,00001.jpg,1,1,0,0,1,300,3449,2.5,3.5,1.5,1
1,6,2,2,42,0,11111.jpg,4,4,1,1,1,400,3551,2.5,3.5,1.5,1
1,6,2,2,43,0,10111.jpg,4,4,1,1,1,500,2168,2.5,3.5,1.5,1
1,6,2,2,44,0,10010.jpg,3,2,1,0,0,400,14209,2.5,3.5,1.5,1
1,6,2,2,45,0,00110.jpg,3,3,1,0,1,500,14737,2.5,3.5,1.5,1
1,6,2,2,46,0,11110.jpg,4,4,1,1,1,600,6052,2.5,3.5,1.5,1
1,6,2,2,47,0,11100.jpg,2,2,0,1,1,700,5938,2.5,3.5,1.5,1
1,6,2,2,48,0,00011.jpg,3,3,1,0,1,800,1813,2.5,3.5,1.5,1
1,6,2,2,49,0,00011.jpg,3,3,1,0,1,900,1702,2.5,3.5,1.5,1
1,6,2,2,50,0,11101.jpg,2,2,0,1,1,1000,5202,2.5,3.5,1.5,1
1,6,2,2,51,0,01011.jpg,3,3,1,0,1,1100,14506,2.5,3.5,1.5,1
1,6,2,2,52,0,11000.jpg,2,1,0,1,0,1000,3640,2.5,3.5,1.5,1
1,6,2,2,53,0,11011.jpg,4,2,1,1,0,900,8080,2.5,3.5,1.5,1
1,6,2,2,54,0,11010.jpg,4,4,1,1,1,1000,11803,2.5,3.5,1.5,1
1,6,2,2,55,0,01101.jpg,2,1,0,1,0,900,16323,2.5,3.5,1.5,1
1,6,2,2,56,0,01001.jpg,1,1,0,0,1,1000,4318,2.5,3.5,1.5,1
1,6,2,2,57,0,11011.jpg,4,4,1,1,1,1100,8899,2.5,3.5,1.5,1
1,6,2,2,58,0,10110.jpg,4,4,1,1,1,1200,4998,2.5,3.5,1.5,1
1,6,2,2,59,0,00111.jpg,3,3,1,0,1,1300,13246,2.5,3.5,1.5,1
1,6,2,2,60,0,01010.jpg,3,3,1,0,1,1400,2205,2.5,3.5,1.5,1
1,6,2,2,61,0,00100.jpg,1,2,0,0,0,1300,11054,2.5,3.5,1.5,1
1,6,2,2,62,0,10011.jpg,3,4,1,0,0,1200,21893,2.5,3.5,1.5,1
1,6,2,2,63,0,00100.jpg,1,1,0,0,1,1300,9744,2.5,3.5,1.5,1
1,6,2,2,64,0,10011.jpg,3,3,1,0,1,1400,4931,2.5,3.5,1.5,1
1,6,2,3,65,0,00110.jpg,3,3,1,0,1,1500,8040,2.5,3.5,1.5,1
1,6,2,3,66,0,00100.jpg,1,1,0,0,1,1600,3416,2.5,3.5,1.5,1
1,6,2,3,67,0,10001.jpg,1,1,0,0,1,1700,9736,2.5,3.5,1.5,1
1,6,2,3,68,0,01111.jpg,4,3,1,1,0,1600,5874,2.5,3.5,1.5,1
1,6,2,3,69,0,01101.jpg,2,2,0,1,1,1700,11087,2.5,3.5,1.5,1
1,6,2,3,70,0,10111.jpg,4,4,1,1,1,1800,2796,2.5,3.5,1.5,1
1,6,2,3,71,0,01110.jpg,4,3,1,1,0,1700,2722,2.5,3.5,1.5,1
1,6,2,3,72,0,10000.jpg,1,1,0,0,1,1800,12309,2.5,3.5,1.5,1
1,6,2,3,73,0,11100.jpg,2,2,0,1,1,1900,3233,2.5,3.5,1.5,1
1,6,2,3,74,0,00000.jpg,1,1,0,0,1,2000,10249,2.5,3.5,1.5,1
1,6,2,3,75,0,11001.jpg,2,1,0,1,0,1900,7031,2.5,3.5,1.5,1
1,6,2,3,76,0,01001.jpg,1,1,0,0,1,2000,9855,2.5,3.5,1.5,1
1,6,2,3,77,0,00101.jpg,1,2,0,0,0,1900,5303,2.5,3.5,1.5,1
1,6,2,3,78,0,11110.jpg,4,4,1,1,1,2000,5873,2.5,3.5,1.5,1
1,6,2,3,79,0,11010.jpg,4,3,1,1,0,1900,20999,2.5,3.5,1.5,1
1,6,2,3,80,0,00001.jpg,1,1,0,0,1,2000,3308,2.5,3.5,1.5,1
1,6,2,3,81,0,10001.jpg,1,1,0,0,1,2100,2905,2.5,3.5,1.5,1
1,6,2,3,82,0,10110.jpg,4,4,1,1,1,2200,3502,2.5,3.5,1.5,1
1,6,2,3,83,0,11101.jpg,2,2,0,1,1,2300,4153,2.5,3.5,1.5,1
1,6,2,3,84,0,01000.jpg,1,1,0,0,1,2400,2269,2.5,3.5,1.5,1
1,6,2,3,85,0,10111.jpg,4,4,1,1,1,2500,1919,2.5,3.5,1.5,1
1,6,2,3,86,0,01100.jpg,2,1,0,1,0,2400,7410,2.5,3.5,1.5,1
1,6,2,3,87,0,11111.jpg,4,4,1,1,1,2500,5121,2.5,3.5,1.5,1
1,6,2,3,88,0,10110.jpg,4,4,1,1,1,2600,1765,2.5,3.5,1.5,1
1,6,2,3,89,0,10011.jpg,3,3,1,0,1,2700,11054,2.5,3.5,1.5,1
1,6,2,3,90,0,00010.jpg,3,3,1,0,1,2800,6277,2.5,3.5,1.5,1
1,6,2,3,91,0,10101.jpg,2,2,0,1,1,2900,2707,2.5,3.5,1.5,1
1,6,2,3,92,0,01100.jpg,2,2,0,1,1,3000,7895,2.5,3.5,1.5,1
1,6,2,3,93,0,10000.jpg,1,1,0,0,1,3100,3644,2.5,3.5,1.5,1
1,6,2,3,94,0,00101.jpg,1,2,0,0,0,3000,3882,2.5,3.5,1.5,1
1,6,2,3,95,0,11000.jpg,2,1,0,1,0,2900,5152,2.5,3.5,1.5,1
1,6,2,3,96,0,01110.jpg,4,3,1,1,0,2800,20466,2.5,3.5,1.5,1
1,6,2,0,97,1,11111pt.jpg,4,4,1,1,1,2800,20466,2.5,3.5,1.5,1
1,6,2,0,98,1,00101pt.jpg,1,2,0,0,0,2800,20466,2.5,3.5,1.5,1
1,6,2,0,99,1,10101pt.jpg,2,2,0,1,1,2800,20466,2.5,3.5,1.5,1
1,6,2,0,100,1,11110pt.jpg,4,4,1,1,1,2800,20466,2.5,3.5,1.5,1
1,6,2,0,101,1,11011pt.jpg,4,3,1,1,0,2800,20466,2.5,3.5,1.5,1
1,6,2,0,102,1,01000pt.jpg,1,1,0,0,1,2800,20466,2.5,3.5,1.5,1
1,6,2,0,103,1,00111pt.jpg,3,3,1,0,1,2800,20466,2.5,3.5,1.5,1
1,6,2,0,104,1,01010pt.jpg,3,3,1,0,1,2800,20466,2.5,3.5,1.5,1
1,6,3,1,1,0,10101.jpg,2,4,0,1,0,-100,32984,2.5,3.5,1.5,1
1,6,3,1,2,0,00010.jpg,1,1,0,0,1,0,12697,2.5,3.5,1.5,1
1,6,3,1,3,0,00001.jpg,1,1,0,0,1,100,8726,2.5,3.5,1.5,1
1,6,3,1,4,0,11000.jpg,1,1,0,0,1,200,10394,2.5,3.5,1.5,1
1,6,3,1,5,0,01111.jpg,4,2,1,1,0,100,8594,2.5,3.5,1.5,1
1,6,3,1,6,0,10111.jpg,4,2,1,1,0,0,13882,2.5,3.5,1.5,1
1,6,3,1,7,0,00101.jpg,1,2,0,0,0,-100,12709,2.5,3.5,1.5,1
1,6,3,1,8,0,00001.jpg,1,1,0,0,1,0,5906,2.5,3.5,1.5,1
1,6,3,1,9,0,01000.jpg,1,1,0,0,1,100,1534,2.5,3.5,1.5,1
1,6,3,1,10,0,00100.jpg,1,1,0,0,1,200,3985,2.5,3.5,1.5,1
1,6,3,1,11,0,01010.jpg,1,2,0,0,0,100,11658,2.5,3.5,1.5,1
1,6,3,1,12,0,00010.jpg,1,1,0,0,1,200,5289,2.5,3.5,1.5,1
1,6,3,1,13,0,11001.jpg,2,1,0,1,0,100,20510,2.5,3.5,1.5,1
1,6,3,1,14,0,01000.jpg,1,1,0,0,1,200,3200,2.5,3.5,1.5,1
1,6,3,1,15,0,11010.jpg,2,2,0,1,1,300,20522,2.5,3.5,1.5,1
1,6,3,1,16,0,00011.jpg,3,1,1,0,0,200,6429,2.5,3.5,1.5,1
1,6,3,1,17,0,11010.jpg,2,2,0,1,1,300,10988,2.5,3.5,1.5,1
1,6,3,1,18,0,10100.jpg,1,4,0,0,0,200,18197,2.5,3.5,1.5,1
1,6,3,1,19,0,10001.jpg,1,1,0,0,1,300,6958,2.5,3.5,1.5,1
1,6,3,1,20,0,10110.jpg,2,4,0,1,0,200,7042,2.5,3.5,1.5,1
1,6,3,1,21,0,01000.jpg,1,1,0,0,1,300,4239,2.5,3.5,1.5,1
1,6,3,1,22,0,11110.jpg,2,2,0,1,1,400,5656,2.5,3.5,1.5,1
