"","subject","cycle","trial","spots","eyes","legs","arms","color","category","response","dangerous","nutricious","correct","cumulative","RT","choices_simple","performance"
"1",1,1,1,1,1,0,1,1,2,3,0,1,0,-100,14848,1,0
"2",1,1,2,0,1,1,1,1,2,2,0,1,1,0,8727,0,0.5
"3",1,1,3,0,1,1,1,0,2,2,0,1,1,100,2980,0,0.666666666666667
"4",1,1,4,0,0,1,0,0,1,1,0,0,1,200,11365,0,0.75
"5",1,1,5,1,0,0,1,1,2,4,0,1,0,100,2954,1,0.6
"6",1,1,6,0,0,1,1,0,2,2,0,1,1,200,2659,0,0.666666666666667
"7",1,1,7,0,1,0,1,1,2,2,0,1,1,300,3570,0,0.714285714285714
"8",1,1,8,0,0,0,0,1,1,1,0,0,1,400,1780,0,0.75
"9",1,1,9,1,1,1,1,0,4,2,1,1,0,300,4774,0,0.666666666666667
"10",1,1,10,0,1,1,0,1,1,1,0,0,1,400,3607,0,0.7
"11",1,1,11,0,1,1,1,1,2,2,0,1,1,500,1399,0,0.727272727272727
"12",1,1,12,1,1,0,0,0,1,3,0,0,0,400,3776,1,0.666666666666667
"13",1,1,13,1,1,0,1,0,2,4,0,1,0,300,4058,1,0.615384615384615
"14",1,1,14,0,1,1,1,1,2,2,0,1,1,400,8919,0,0.642857142857143
"15",1,1,15,1,0,0,0,1,1,1,0,0,1,500,2220,0,0.666666666666667
"16",1,1,16,1,1,1,1,1,4,4,1,1,1,600,4860,1,0.6875
"17",1,1,17,0,0,0,1,0,2,2,0,1,1,700,2401,0,0.705882352941177
"18",1,1,18,0,0,1,0,1,1,1,0,0,1,800,1530,0,0.722222222222222
"19",1,1,19,1,1,1,0,0,3,1,1,0,0,700,1446,0,0.684210526315789
"20",1,1,20,1,1,1,0,1,3,3,1,0,1,800,2533,1,0.7
"21",1,1,21,1,1,1,1,1,4,4,1,1,1,900,3081,1,0.714285714285714
"22",1,1,22,0,0,0,1,0,2,2,0,1,1,1000,1708,0,0.727272727272727
"23",1,1,23,0,0,0,1,0,2,2,0,1,1,1100,1466,0,0.739130434782609
"24",1,1,24,1,0,1,1,1,4,4,1,1,1,1200,3129,1,0.75
"25",1,1,25,1,0,1,1,1,4,4,1,1,1,1300,1082,1,0.76
"26",1,1,26,0,1,1,0,0,1,1,0,0,1,1400,3623,0,0.769230769230769
"27",1,1,27,0,1,0,0,0,1,1,0,0,1,1500,1288,0,0.777777777777778
"28",1,1,28,0,0,1,0,0,1,1,0,0,1,1600,1324,0,0.785714285714286
"29",1,1,29,0,1,0,1,1,2,2,0,1,1,1700,1353,0,0.793103448275862
"30",1,1,30,1,1,0,0,1,1,1,0,0,1,1800,1212,0,0.8
"31",1,1,31,0,1,0,1,1,2,2,0,1,1,1900,1212,0,0.806451612903226
"32",1,1,32,0,1,0,1,0,2,2,0,1,1,2000,1084,0,0.8125
"33",1,2,33,1,0,1,1,0,4,4,1,1,1,2100,2746,1,0.818181818181818
"34",1,2,34,1,0,1,1,0,4,4,1,1,1,2200,1572,1,0.823529411764706
"35",1,2,35,0,0,1,0,1,1,1,0,0,1,2300,1325,0,0.828571428571429
"36",1,2,36,1,1,0,0,0,1,1,0,0,1,2400,1593,0,0.833333333333333
"37",1,2,37,1,1,0,0,0,1,1,0,0,1,2500,1051,0,0.837837837837838
"38",1,2,38,0,0,0,0,0,1,1,0,0,1,2600,882,0,0.842105263157895
"39",1,2,39,0,1,0,0,1,1,1,0,0,1,2700,872,0,0.846153846153846
"40",1,2,40,0,0,1,1,1,2,2,0,1,1,2800,1990,0,0.85
"41",1,2,41,1,0,1,0,1,3,1,1,0,0,2700,2039,0,0.829268292682927
"42",1,2,42,0,0,1,1,0,2,2,0,1,1,2800,6063,0,0.833333333333333
"43",1,2,43,0,1,0,0,1,1,1,0,0,1,2900,1132,0,0.837209302325581
"44",1,2,44,1,0,0,1,0,2,4,0,1,0,2800,3170,1,0.818181818181818
"45",1,2,45,1,1,1,0,1,3,1,1,0,0,2700,2348,0,0.8
"46",1,2,46,1,0,0,0,0,1,1,0,0,1,2800,2630,0,0.804347826086957
"47",1,2,47,1,0,0,0,0,1,1,0,0,1,2900,1622,0,0.808510638297872
"48",1,2,48,1,0,1,0,0,3,4,1,0,0,2800,2727,1,0.791666666666667
"49",1,2,49,0,1,0,1,0,2,2,0,1,1,2900,5026,0,0.795918367346939
"50",1,2,50,1,0,0,1,0,2,4,0,1,0,2800,3243,1,0.78
"51",1,2,51,0,1,1,0,0,1,1,0,0,1,2900,3066,0,0.784313725490196
"52",1,2,52,1,0,1,0,0,3,4,1,0,0,2800,8281,1,0.769230769230769
"53",1,2,53,1,0,1,0,0,3,3,1,0,1,2900,3758,1,0.773584905660377
"54",1,2,54,0,0,1,0,0,1,1,0,0,1,3000,2419,0,0.777777777777778
"55",1,2,55,1,1,1,0,0,3,4,1,0,0,2900,5090,1,0.763636363636364
"56",1,2,56,0,0,0,0,1,1,1,0,0,1,3000,1223,0,0.767857142857143
"57",1,2,57,0,1,0,0,1,1,1,0,0,1,3100,1231,0,0.771929824561403
"58",1,2,58,1,1,0,0,1,1,1,0,0,1,3200,1079,0,0.775862068965517
"59",1,2,59,1,1,1,1,0,4,4,1,1,1,3300,2373,1,0.779661016949153
"60",1,2,60,0,1,1,1,0,2,4,0,1,0,3200,5327,1,0.766666666666667
"61",1,2,61,0,0,1,1,1,2,2,0,1,1,3300,2227,0,0.770491803278688
"62",1,2,62,1,1,1,1,0,4,4,1,1,1,3400,3138,1,0.774193548387097
"63",1,2,63,1,0,0,1,1,2,2,0,1,1,3500,1205,0,0.777777777777778
"64",1,2,64,0,1,0,0,0,1,1,0,0,1,3600,1158,0,0.78125
"65",1,3,65,1,0,0,0,0,1,1,0,0,1,3700,1345,0,0.784615384615385
"66",1,3,66,0,1,0,1,0,2,2,0,1,1,3800,1180,0,0.787878787878788
"67",1,3,67,1,1,1,0,0,3,1,1,0,0,3700,2182,0,0.776119402985075
"68",1,3,68,1,1,1,0,1,3,3,1,0,1,3800,1368,1,0.779411764705882
"69",1,3,69,0,0,1,1,0,2,2,0,1,1,3900,1602,0,0.782608695652174
"70",1,3,70,0,0,0,0,1,1,1,0,0,1,4000,1260,0,0.785714285714286
"71",1,3,71,1,0,1,0,1,3,3,1,0,1,4100,2858,1,0.788732394366197
"72",1,3,72,0,0,1,0,1,1,3,0,0,0,4000,6065,1,0.777777777777778
"73",1,3,73,0,0,0,0,0,1,1,0,0,1,4100,1440,0,0.780821917808219
"74",1,3,74,0,0,0,1,1,2,2,0,1,1,4200,966,0,0.783783783783784
"75",1,3,75,1,1,0,1,0,2,4,0,1,0,4100,2081,1,0.773333333333333
"76",1,3,76,1,1,0,1,1,2,2,0,1,1,4200,1615,0,0.776315789473684
"77",1,3,77,0,1,0,0,0,1,1,0,0,1,4300,1126,0,0.779220779220779
"78",1,3,78,0,1,1,1,0,2,2,0,1,1,4400,2570,0,0.782051282051282
"79",1,3,79,1,0,1,0,1,3,3,1,0,1,4500,3102,1,0.784810126582278
"80",1,3,80,1,1,0,1,0,2,4,0,1,0,4400,5321,1,0.775
"81",1,3,81,0,1,1,0,1,1,1,0,0,1,4500,4582,0,0.777777777777778
"82",1,3,82,1,0,0,0,1,1,1,0,0,1,4600,1688,0,0.780487804878049
"83",1,3,83,1,0,0,1,1,2,2,0,1,1,4700,2382,0,0.783132530120482
"84",1,3,84,1,1,0,1,1,2,2,0,1,1,4800,1360,0,0.785714285714286
"85",1,3,85,1,0,1,1,1,4,4,1,1,1,4900,2034,1,0.788235294117647
"86",1,3,86,0,0,0,0,0,1,1,0,0,1,5000,1585,0,0.790697674418605
"87",1,3,87,1,0,1,1,0,4,4,1,1,1,5100,2131,1,0.793103448275862
"88",1,3,88,0,1,1,0,0,1,1,0,0,1,5200,4526,0,0.795454545454545
"89",1,3,89,0,0,1,1,1,2,2,0,1,1,5300,1618,0,0.797752808988764
"90",1,3,90,1,1,0,0,1,1,1,0,0,1,5400,1217,0,0.8
"91",1,3,91,1,0,0,0,1,1,1,0,0,1,5500,1107,0,0.802197802197802
"92",1,3,92,1,0,0,1,0,2,2,0,1,1,5600,1271,0,0.804347826086957
"93",1,3,93,1,1,1,1,1,4,4,1,1,1,5700,2221,1,0.806451612903226
"94",1,3,94,0,1,1,0,1,1,1,0,0,1,5800,2092,0,0.808510638297872
"95",1,3,95,0,0,0,1,1,2,2,0,1,1,5900,962,0,0.810526315789474
"96",1,3,96,0,0,0,1,1,2,2,0,1,1,6000,901,0,0.8125
"97",1,0,97,1,1,1,1,1,4,4,1,1,1,6000,6712,1,0.814432989690722
"98",1,0,98,0,0,1,1,1,2,2,0,1,1,6000,4116,0,0.816326530612245
"99",1,0,99,1,0,1,0,1,3,3,1,0,1,6000,9539,1,0.818181818181818
"100",1,0,100,0,0,1,0,1,1,1,0,0,1,6000,2869,0,0.82
"101",1,0,101,0,1,0,0,0,1,1,0,0,1,6000,4432,0,0.821782178217822
"102",1,0,102,0,1,0,1,0,2,2,0,1,1,6000,1957,0,0.823529411764706
"103",1,0,103,1,1,0,1,1,2,2,0,1,1,6000,4661,0,0.825242718446602
"104",1,0,104,1,1,1,1,0,4,4,1,1,1,6000,3194,1,0.826923076923077
"105",2,1,1,0,0,1,1,1,2,4,0,1,0,-100,6133,1,0
"106",2,1,2,1,1,1,0,1,3,3,1,0,1,0,2671,1,0.5
"107",2,1,3,0,1,1,1,0,2,3,0,1,0,-100,6751,1,0.333333333333333
"108",2,1,4,0,0,0,1,1,2,2,0,1,1,0,3200,0,0.5
"109",2,1,5,0,0,0,1,0,2,2,0,1,1,100,14289,0,0.6
"110",2,1,6,1,0,0,0,0,1,3,0,0,0,0,1495,1,0.5
"111",2,1,7,1,1,0,1,0,2,3,0,1,0,-100,2980,1,0.428571428571429
"112",2,1,8,1,0,1,0,1,3,3,1,0,1,0,5997,1,0.5
"113",2,1,9,0,0,0,0,0,1,4,0,0,0,-100,9103,1,0.444444444444444
"114",2,1,10,1,1,0,1,1,2,3,0,1,0,-200,1547,1,0.4
"115",2,1,11,1,1,0,1,0,2,2,0,1,1,-100,7622,0,0.454545454545455
"116",2,1,12,1,1,0,0,0,1,1,0,0,1,0,7437,0,0.5
"117",2,1,13,0,1,1,0,0,1,3,0,0,0,-100,6461,1,0.461538461538462
"118",2,1,14,1,0,0,1,1,2,4,0,1,0,-200,5284,1,0.428571428571429
"119",2,1,15,1,1,0,1,1,2,2,0,1,1,-100,1289,0,0.466666666666667
"120",2,1,16,0,1,0,1,0,2,2,0,1,1,0,3022,0,0.5
"121",2,1,17,0,0,0,1,1,2,2,0,1,1,100,1534,0,0.529411764705882
"122",2,1,18,0,1,1,1,1,2,1,0,1,0,0,5818,0,0.5
"123",2,1,19,0,0,0,0,0,1,2,0,0,0,-100,2882,0,0.473684210526316
"124",2,1,20,1,0,0,1,1,2,3,0,1,0,-200,4215,1,0.45
"125",2,1,21,0,1,0,0,1,1,2,0,0,0,-300,2047,0,0.428571428571429
"126",2,1,22,1,0,0,0,1,1,3,0,0,0,-400,1773,1,0.409090909090909
"127",2,1,23,0,0,1,1,0,2,4,0,1,0,-500,4989,1,0.391304347826087
"128",2,1,24,1,0,1,1,1,4,3,1,1,0,-600,9280,1,0.375
"129",2,1,25,0,0,1,1,0,2,3,0,1,0,-700,11323,1,0.36
"130",2,1,26,1,1,1,0,1,3,2,1,0,0,-800,1200,0,0.346153846153846
"131",2,1,27,0,1,0,1,0,2,2,0,1,1,-700,1241,0,0.37037037037037
"132",2,1,28,1,0,0,1,1,2,4,0,1,0,-800,4777,1,0.357142857142857
"133",2,1,29,1,0,1,0,0,3,2,1,0,0,-900,1979,0,0.344827586206897
"134",2,1,30,1,0,1,1,0,4,3,1,1,0,-1000,1292,1,0.333333333333333
"135",2,1,31,0,0,1,0,1,1,2,0,0,0,-1100,4407,0,0.32258064516129
"136",2,1,32,1,0,0,1,0,2,2,0,1,1,-1000,5919,0,0.34375
"137",2,2,33,1,1,0,0,0,1,4,0,0,0,-1100,5067,1,0.333333333333333
"138",2,2,34,1,1,1,1,1,4,4,1,1,1,-1000,4402,1,0.352941176470588
"139",2,2,35,0,1,1,1,0,2,3,0,1,0,-1100,8530,1,0.342857142857143
"140",2,2,36,1,0,1,1,1,4,2,1,1,0,-1200,2269,0,0.333333333333333
"141",2,2,37,0,1,1,0,1,1,2,0,0,0,-1300,2466,0,0.324324324324324
"142",2,2,38,1,0,0,1,0,2,2,0,1,1,-1200,7049,0,0.342105263157895
"143",2,2,39,1,0,0,0,0,1,4,0,0,0,-1300,2854,1,0.333333333333333
"144",2,2,40,1,0,0,1,0,2,1,0,1,0,-1400,3102,0,0.325
"145",2,2,41,0,0,1,0,0,1,2,0,0,0,-1500,8849,0,0.317073170731707
"146",2,2,42,0,0,0,0,1,1,2,0,0,0,-1600,2322,0,0.30952380952381
"147",2,2,43,0,1,0,1,1,2,3,0,1,0,-1700,2308,1,0.302325581395349
"148",2,2,44,1,1,1,1,0,4,4,1,1,1,-1600,2289,1,0.318181818181818
"149",2,2,45,0,1,1,0,1,1,1,0,0,1,-1500,2383,0,0.333333333333333
"150",2,2,46,0,0,1,1,0,2,4,0,1,0,-1600,3216,1,0.326086956521739
"151",2,2,47,0,1,1,0,0,1,1,0,0,1,-1500,2592,0,0.340425531914894
"152",2,2,48,1,0,1,1,0,4,4,1,1,1,-1400,3778,1,0.354166666666667
"153",2,2,49,1,1,0,1,1,2,2,0,1,1,-1300,1378,0,0.36734693877551
"154",2,2,50,0,0,1,0,1,1,3,0,0,0,-1400,4363,1,0.36
"155",2,2,51,0,0,0,1,0,2,2,0,1,1,-1300,4749,0,0.372549019607843
"156",2,2,52,1,0,0,0,1,1,3,0,0,0,-1400,3864,1,0.365384615384615
"157",2,2,53,0,0,1,1,1,2,4,0,1,0,-1500,3839,1,0.358490566037736
"158",2,2,54,1,1,0,1,0,2,2,0,1,1,-1400,3918,0,0.37037037037037
"159",2,2,55,1,0,1,0,0,3,1,1,0,0,-1500,2090,0,0.363636363636364
"160",2,2,56,1,0,1,1,1,4,4,1,1,1,-1400,2087,1,0.375
"161",2,2,57,0,1,1,0,1,1,3,0,0,0,-1500,3283,1,0.368421052631579
"162",2,2,58,0,1,1,1,1,2,4,0,1,0,-1600,3249,1,0.362068965517241
"163",2,2,59,1,1,0,0,1,1,3,0,0,0,-1700,3336,1,0.355932203389831
"164",2,2,60,1,1,0,0,1,1,1,0,0,1,-1600,1499,0,0.366666666666667
"165",2,2,61,1,0,1,0,0,3,3,1,0,1,-1500,6569,1,0.377049180327869
"166",2,2,62,0,0,1,0,1,1,1,0,0,1,-1400,6691,0,0.387096774193548
"167",2,2,63,0,1,0,1,1,2,2,0,1,1,-1300,1706,0,0.396825396825397
"168",2,2,64,1,1,1,0,0,3,3,1,0,1,-1200,1453,1,0.40625
"169",2,3,65,0,1,0,0,1,1,1,0,0,1,-1100,1988,0,0.415384615384615
"170",2,3,66,1,1,0,0,1,1,1,0,0,1,-1000,2334,0,0.424242424242424
"171",2,3,67,1,0,1,0,1,3,1,1,0,0,-1100,3394,0,0.417910447761194
"172",2,3,68,0,1,1,0,0,1,3,0,0,0,-1200,1579,1,0.411764705882353
"173",2,3,69,0,1,1,1,1,2,4,0,1,0,-1300,5989,1,0.405797101449275
"174",2,3,70,0,0,1,0,0,1,3,0,0,0,-1400,20782,1,0.4
"175",2,3,71,0,1,0,0,0,1,1,0,0,1,-1300,2943,0,0.408450704225352
"176",2,3,72,1,1,1,1,1,4,4,1,1,1,-1200,2074,1,0.416666666666667
"177",2,3,73,0,0,0,1,1,2,2,0,1,1,-1100,1968,0,0.424657534246575
"178",2,3,74,1,1,1,0,1,3,3,1,0,1,-1000,3665,1,0.432432432432432
"179",2,3,75,0,0,0,0,0,1,1,0,0,1,-900,1976,0,0.44
"180",2,3,76,0,0,1,0,0,1,1,0,0,1,-800,2410,0,0.447368421052632
"181",2,3,77,0,1,0,0,0,1,1,0,0,1,-700,1003,0,0.454545454545455
"182",2,3,78,0,0,0,0,1,1,1,0,0,1,-600,2004,0,0.461538461538462
"183",2,3,79,1,1,1,0,0,3,3,1,0,1,-500,2108,1,0.468354430379747
"184",2,3,80,0,0,1,1,1,2,2,0,1,1,-400,2026,0,0.475
"185",2,3,81,1,1,0,0,0,1,3,0,0,0,-500,1819,1,0.469135802469136
"186",2,3,82,0,1,0,0,1,1,1,0,0,1,-400,2066,0,0.475609756097561
"187",2,3,83,1,1,1,1,0,4,3,1,1,0,-500,2513,1,0.469879518072289
"188",2,3,84,0,0,0,1,0,2,1,0,1,0,-600,7204,0,0.464285714285714
"189",2,3,85,1,1,1,1,1,4,3,1,1,0,-700,2260,1,0.458823529411765
"190",2,3,86,0,1,1,1,0,2,1,0,1,0,-800,3267,0,0.453488372093023
"191",2,3,87,1,0,0,0,1,1,1,0,0,1,-700,3479,0,0.459770114942529
"192",2,3,88,1,0,1,1,0,4,4,1,1,1,-600,6566,1,0.465909090909091
"193",2,3,89,0,1,0,1,0,2,2,0,1,1,-500,2551,0,0.471910112359551
"194",2,3,90,1,1,1,0,0,3,3,1,0,1,-400,3066,1,0.477777777777778
"195",2,3,91,1,0,1,0,1,3,3,1,0,1,-300,2081,1,0.483516483516484
"196",2,3,92,1,0,0,0,0,1,1,0,0,1,-200,2102,0,0.489130434782609
"197",2,3,93,1,1,1,1,0,4,4,1,1,1,-100,4132,1,0.494623655913978
"198",2,3,94,0,1,0,0,0,1,1,0,0,1,0,3695,0,0.5
"199",2,3,95,0,0,0,0,1,1,1,0,0,1,100,5099,0,0.505263157894737
"200",2,3,96,0,1,0,1,1,2,2,0,1,1,200,1361,0,0.510416666666667
"201",2,0,97,1,1,0,1,1,2,4,0,1,0,200,6687,1,0.505154639175258
"202",2,0,98,1,1,1,1,0,4,1,1,1,0,200,74,0,0.5
"203",2,0,99,1,0,1,0,1,3,3,1,0,1,200,7212,1,0.505050505050505
"204",2,0,100,0,0,1,1,1,2,2,0,1,1,200,4515,0,0.51
"205",2,0,101,0,0,1,0,1,1,1,0,0,1,200,3523,0,0.514851485148515
"206",2,0,102,0,1,0,1,0,2,4,0,1,0,200,5126,1,0.509803921568627
"207",2,0,103,1,1,1,1,1,4,4,1,1,1,200,2213,1,0.514563106796116
"208",2,0,104,0,1,0,0,0,1,1,0,0,1,200,4779,0,0.519230769230769
"209",3,1,1,1,1,1,0,1,3,4,1,0,0,-100,14798,1,0
"210",3,1,2,0,0,0,0,1,1,4,0,0,0,-200,5661,1,0
"211",3,1,3,1,0,0,1,1,2,4,0,1,0,-300,5616,1,0
"212",3,1,4,0,0,0,1,1,2,2,0,1,1,-200,1708,0,0.25
"213",3,1,5,1,1,1,1,0,4,4,1,1,1,-100,3470,1,0.4
"214",3,1,6,0,1,1,0,1,1,2,0,0,0,-200,3257,0,0.333333333333333
"215",3,1,7,0,0,1,0,0,1,1,0,0,1,-100,1902,0,0.428571428571429
"216",3,1,8,1,1,1,0,0,3,1,1,0,0,-200,7238,0,0.375
"217",3,1,9,1,0,1,1,0,4,4,1,1,1,-100,2112,1,0.444444444444444
"218",3,1,10,1,1,1,1,1,4,2,1,1,0,-200,3960,0,0.4
"219",3,1,11,0,0,0,0,0,1,2,0,0,0,-300,1315,0,0.363636363636364
"220",3,1,12,0,1,1,1,0,2,2,0,1,1,-200,1350,0,0.416666666666667
"221",3,1,13,0,0,0,0,0,1,1,0,0,1,-100,682,0,0.461538461538462
"222",3,1,14,1,1,0,0,1,1,3,0,0,0,-200,3753,1,0.428571428571429
"223",3,1,15,0,1,1,1,0,2,2,0,1,1,-100,2767,0,0.466666666666667
"224",3,1,16,1,0,0,1,1,2,2,0,1,1,0,873,0,0.5
"225",3,1,17,1,1,1,0,1,3,3,1,0,1,100,4339,1,0.529411764705882
"226",3,1,18,0,0,0,0,0,1,1,0,0,1,200,1303,0,0.555555555555556
"227",3,1,19,0,0,0,0,1,1,1,0,0,1,300,1049,0,0.578947368421053
"228",3,1,20,0,0,1,0,1,1,1,0,0,1,400,849,0,0.6
"229",3,1,21,1,1,0,0,0,1,3,0,0,0,300,1914,1,0.571428571428571
"230",3,1,22,1,1,0,0,0,1,1,0,0,1,400,897,0,0.590909090909091
"231",3,1,23,0,0,0,1,0,2,2,0,1,1,500,1091,0,0.608695652173913
"232",3,1,24,0,1,0,1,1,2,2,0,1,1,600,873,0,0.625
"233",3,1,25,1,0,1,0,1,3,1,1,0,0,500,1356,0,0.6
"234",3,1,26,0,1,1,1,1,2,2,0,1,1,600,857,0,0.615384615384615
"235",3,1,27,0,0,1,1,1,2,2,0,1,1,700,1005,0,0.62962962962963
"236",3,1,28,0,1,0,0,1,1,1,0,0,1,800,1240,0,0.642857142857143
"237",3,1,29,0,1,1,0,0,1,1,0,0,1,900,2484,0,0.655172413793103
"238",3,1,30,1,0,0,1,0,2,2,0,1,1,1000,1037,0,0.666666666666667
"239",3,1,31,1,1,0,0,1,1,1,0,0,1,1100,2371,0,0.67741935483871
"240",3,1,32,1,0,1,1,0,4,2,1,1,0,1000,927,0,0.65625
"241",3,2,33,1,1,1,1,0,4,4,1,1,1,1100,1102,1,0.666666666666667
"242",3,2,34,1,0,0,0,1,1,1,0,0,1,1200,2746,0,0.676470588235294
"243",3,2,35,1,1,0,1,0,2,2,0,1,1,1300,866,0,0.685714285714286
"244",3,2,36,1,0,1,0,0,3,1,1,0,0,1200,2116,0,0.666666666666667
"245",3,2,37,1,0,0,0,1,1,1,0,0,1,1300,1344,0,0.675675675675676
"246",3,2,38,0,1,1,1,1,2,2,0,1,1,1400,1104,0,0.684210526315789
"247",3,2,39,0,1,1,0,1,1,1,0,0,1,1500,2109,0,0.692307692307692
"248",3,2,40,1,1,0,1,0,2,2,0,1,1,1600,2054,0,0.7
"249",3,2,41,1,1,1,0,1,3,3,1,0,1,1700,3189,1,0.707317073170732
"250",3,2,42,0,0,1,1,1,2,2,0,1,1,1800,3752,0,0.714285714285714
"251",3,2,43,0,1,0,1,0,2,2,0,1,1,1900,1125,0,0.720930232558139
"252",3,2,44,1,0,1,1,1,4,4,1,1,1,2000,4819,1,0.727272727272727
"253",3,2,45,0,1,0,0,0,1,1,0,0,1,2100,2286,0,0.733333333333333
"254",3,2,46,1,1,1,0,0,3,3,1,0,1,2200,3820,1,0.739130434782609
"255",3,2,47,0,0,1,0,0,1,3,0,0,0,2100,1446,1,0.723404255319149
"256",3,2,48,1,1,0,0,0,1,1,0,0,1,2200,1749,0,0.729166666666667
"257",3,2,49,1,0,0,0,1,1,1,0,0,1,2300,3070,0,0.73469387755102
"258",3,2,50,0,0,0,1,0,2,2,0,1,1,2400,1044,0,0.74
"259",3,2,51,1,1,1,1,1,4,4,1,1,1,2500,1977,1,0.745098039215686
"260",3,2,52,0,0,0,1,0,2,2,0,1,1,2600,1058,0,0.75
"261",3,2,53,0,1,1,0,0,1,3,0,0,0,2500,1782,1,0.735849056603774
"262",3,2,54,0,1,0,0,0,1,1,0,0,1,2600,1550,0,0.740740740740741
"263",3,2,55,0,1,0,0,0,1,1,0,0,1,2700,790,0,0.745454545454545
"264",3,2,56,0,0,1,1,1,2,4,0,1,0,2600,4476,1,0.732142857142857
"265",3,2,57,1,1,1,1,0,4,4,1,1,1,2700,1005,1,0.736842105263158
"266",3,2,58,1,1,0,1,1,2,2,0,1,1,2800,1150,0,0.741379310344828
"267",3,2,59,0,1,0,1,1,2,2,0,1,1,2900,896,0,0.745762711864407
"268",3,2,60,0,1,0,1,0,2,2,0,1,1,3000,832,0,0.75
"269",3,2,61,0,1,0,1,1,2,2,0,1,1,3100,679,0,0.754098360655738
"270",3,2,62,0,1,1,0,0,1,1,0,0,1,3200,4139,0,0.758064516129032
"271",3,2,63,0,0,1,0,1,1,1,0,0,1,3300,1893,0,0.761904761904762
"272",3,2,64,1,0,1,0,0,3,3,1,0,1,3400,1971,1,0.765625
"273",3,3,65,1,1,0,1,1,2,2,0,1,1,3500,1915,0,0.769230769230769
"274",3,3,66,1,0,0,0,0,1,1,0,0,1,3600,2749,0,0.772727272727273
"275",3,3,67,1,0,1,1,0,4,4,1,1,1,3700,1755,1,0.776119402985075
"276",3,3,68,0,1,0,1,0,2,2,0,1,1,3800,1033,0,0.779411764705882
"277",3,3,69,1,1,1,0,0,3,3,1,0,1,3900,2190,1,0.782608695652174
"278",3,3,70,1,1,0,1,1,2,2,0,1,1,4000,927,0,0.785714285714286
"279",3,3,71,1,0,0,1,0,2,2,0,1,1,4100,942,0,0.788732394366197
"280",3,3,72,1,0,0,0,0,1,2,0,0,0,4000,806,0,0.777777777777778
"281",3,3,73,0,0,0,1,1,2,2,0,1,1,4100,737,0,0.780821917808219
"282",3,3,74,0,0,0,1,1,2,2,0,1,1,4200,793,0,0.783783783783784
"283",3,3,75,0,1,0,0,1,1,1,0,0,1,4300,7482,0,0.786666666666667
"284",3,3,76,1,0,0,0,0,1,1,0,0,1,4400,2906,0,0.789473684210526
"285",3,3,77,0,1,1,1,0,2,2,0,1,1,4500,6633,0,0.792207792207792
"286",3,3,78,0,1,1,0,1,1,1,0,0,1,4600,3051,0,0.794871794871795
"287",3,3,79,0,0,1,0,0,1,1,0,0,1,4700,3070,0,0.79746835443038
"288",3,3,80,1,0,1,0,1,3,3,1,0,1,4800,3859,1,0.8
"289",3,3,81,0,0,0,0,1,1,1,0,0,1,4900,1391,0,0.802469135802469
"290",3,3,82,0,0,1,0,1,1,1,0,0,1,5000,3895,0,0.804878048780488
"291",3,3,83,0,0,1,1,0,2,2,0,1,1,5100,2006,0,0.807228915662651
"292",3,3,84,0,0,1,1,0,2,2,0,1,1,5200,4615,0,0.80952380952381
"293",3,3,85,0,1,0,0,1,1,1,0,0,1,5300,1429,0,0.811764705882353
"294",3,3,86,0,0,1,1,0,2,2,0,1,1,5400,2929,0,0.813953488372093
"295",3,3,87,1,0,1,1,1,4,4,1,1,1,5500,4177,1,0.816091954022989
"296",3,3,88,1,1,1,1,1,4,4,1,1,1,5600,1052,1,0.818181818181818
"297",3,3,89,1,0,1,0,0,3,3,1,0,1,5700,2014,1,0.820224719101124
"298",3,3,90,1,1,0,0,1,1,1,0,0,1,5800,3833,0,0.822222222222222
"299",3,3,91,1,0,1,0,1,3,3,1,0,1,5900,4441,1,0.824175824175824
"300",3,3,92,1,0,0,1,1,2,2,0,1,1,6000,1462,0,0.826086956521739
"301",3,3,93,1,1,0,1,0,2,2,0,1,1,6100,1292,0,0.827956989247312
"302",3,3,94,1,0,1,1,1,4,4,1,1,1,6200,1468,1,0.829787234042553
"303",3,3,95,0,1,1,1,1,2,2,0,1,1,6300,1358,0,0.831578947368421
"304",3,3,96,1,0,0,1,0,2,2,0,1,1,6400,796,0,0.833333333333333
"305",3,0,97,1,0,1,0,1,3,3,1,0,1,6400,5238,1,0.835051546391753
"306",3,0,98,1,1,1,1,1,4,4,1,1,1,6400,2487,1,0.836734693877551
"307",3,0,99,0,0,1,0,1,1,1,0,0,1,6400,5484,0,0.838383838383838
"308",3,0,100,0,1,0,0,0,1,1,0,0,1,6400,6349,0,0.84
"309",3,0,101,1,1,0,1,1,2,2,0,1,1,6400,2080,0,0.841584158415842
"310",3,0,102,0,1,0,1,0,2,2,0,1,1,6400,2545,0,0.843137254901961
"311",3,0,103,0,0,1,1,1,2,2,0,1,1,6400,4314,0,0.844660194174757
"312",3,0,104,1,1,1,1,0,4,4,1,1,1,6400,1856,1,0.846153846153846
"313",4,1,1,1,0,1,1,1,4,4,1,1,1,100,11910,1,1
"314",4,1,2,1,0,0,0,1,1,3,0,0,0,0,3881,1,0.5
"315",4,1,3,0,0,0,0,0,1,1,0,0,1,100,5151,0,0.666666666666667
"316",4,1,4,0,1,0,0,1,1,2,0,0,0,0,1793,0,0.5
"317",4,1,5,0,1,0,1,0,2,2,0,1,1,100,7707,0,0.6
"318",4,1,6,1,0,0,1,0,2,4,0,1,0,0,2950,1,0.5
"319",4,1,7,1,0,0,1,0,2,2,0,1,1,100,3099,0,0.571428571428571
"320",4,1,8,0,1,1,0,1,1,1,0,0,1,200,4430,0,0.625
"321",4,1,9,0,0,0,0,0,1,1,0,0,1,300,8431,0,0.666666666666667
"322",4,1,10,0,1,1,1,0,2,2,0,1,1,400,10558,0,0.7
"323",4,1,11,1,1,0,0,1,1,3,0,0,0,300,3345,1,0.636363636363636
"324",4,1,12,0,0,0,1,1,2,2,0,1,1,400,4124,0,0.666666666666667
"325",4,1,13,0,0,1,0,0,1,1,0,0,1,500,3897,0,0.692307692307692
"326",4,1,14,0,1,0,1,1,2,2,0,1,1,600,2229,0,0.714285714285714
"327",4,1,15,0,0,1,1,0,2,2,0,1,1,700,4701,0,0.733333333333333
"328",4,1,16,0,0,1,0,0,1,1,0,0,1,800,3786,0,0.75
"329",4,1,17,0,0,1,0,0,1,1,0,0,1,900,7356,0,0.764705882352941
"330",4,1,18,1,0,1,1,0,4,2,1,1,0,800,3415,0,0.722222222222222
"331",4,1,19,1,1,1,1,0,4,4,1,1,1,900,2181,1,0.736842105263158
"332",4,1,20,0,0,0,1,1,2,2,0,1,1,1000,2871,0,0.75
"333",4,1,21,0,0,1,1,0,2,2,0,1,1,1100,2357,0,0.761904761904762
"334",4,1,22,0,1,1,0,1,1,1,0,0,1,1200,2607,0,0.772727272727273
"335",4,1,23,0,1,1,0,1,1,1,0,0,1,1300,1368,0,0.782608695652174
"336",4,1,24,1,1,0,1,1,2,4,0,1,0,1200,7937,1,0.75
"337",4,1,25,1,1,0,1,0,2,2,0,1,1,1300,3423,0,0.76
"338",4,1,26,1,0,1,0,0,3,3,1,0,1,1400,2781,1,0.769230769230769
"339",4,1,27,0,1,1,1,1,2,2,0,1,1,1500,2320,0,0.777777777777778
"340",4,1,28,0,1,1,1,0,2,2,0,1,1,1600,2557,0,0.785714285714286
"341",4,1,29,1,0,1,0,1,3,1,1,0,0,1500,3678,0,0.758620689655172
"342",4,1,30,1,1,0,0,0,1,1,0,0,1,1600,2708,0,0.766666666666667
"343",4,1,31,1,1,1,1,0,4,4,1,1,1,1700,1928,1,0.774193548387097
"344",4,1,32,1,1,1,0,0,3,3,1,0,1,1800,1763,1,0.78125
"345",4,2,33,1,0,0,0,0,1,1,0,0,1,1900,2007,0,0.787878787878788
"346",4,2,34,1,1,0,1,1,2,2,0,1,1,2000,1624,0,0.794117647058823
"347",4,2,35,0,0,1,1,0,2,2,0,1,1,2100,3975,0,0.8
"348",4,2,36,0,0,0,1,0,2,2,0,1,1,2200,1674,0,0.805555555555556
"349",4,2,37,1,1,0,1,0,2,2,0,1,1,2300,2432,0,0.810810810810811
"350",4,2,38,1,1,1,0,1,3,3,1,0,1,2400,2608,1,0.815789473684211
"351",4,2,39,0,0,1,0,1,1,1,0,0,1,2500,2082,0,0.82051282051282
"352",4,2,40,0,0,0,0,1,1,1,0,0,1,2600,1799,0,0.825
"353",4,2,41,1,0,1,1,0,4,4,1,1,1,2700,3761,1,0.829268292682927
"354",4,2,42,0,1,0,1,1,2,2,0,1,1,2800,4354,0,0.833333333333333
"355",4,2,43,0,0,1,0,1,1,1,0,0,1,2900,4413,0,0.837209302325581
"356",4,2,44,1,0,0,1,0,2,2,0,1,1,3000,3021,0,0.840909090909091
"357",4,2,45,1,0,1,0,1,3,3,1,0,1,3100,3294,1,0.844444444444444
"358",4,2,46,1,0,0,0,1,1,1,0,0,1,3200,7867,0,0.847826086956522
"359",4,2,47,1,1,1,0,1,3,3,1,0,1,3300,6579,1,0.851063829787234
"360",4,2,48,1,0,0,1,1,2,2,0,1,1,3400,1941,0,0.854166666666667
"361",4,2,49,1,0,1,0,0,3,3,1,0,1,3500,2129,1,0.857142857142857
"362",4,2,50,0,1,1,0,0,1,1,0,0,1,3600,2398,0,0.86
"363",4,2,51,1,0,0,0,0,1,1,0,0,1,3700,3350,0,0.862745098039216
"364",4,2,52,0,0,0,1,0,2,2,0,1,1,3800,2586,0,0.865384615384615
"365",4,2,53,0,0,0,1,0,2,2,0,1,1,3900,1259,0,0.867924528301887
"366",4,2,54,1,1,0,0,1,1,1,0,0,1,4000,5002,0,0.87037037037037
"367",4,2,55,1,0,1,1,1,4,4,1,1,1,4100,2533,1,0.872727272727273
"368",4,2,56,1,1,0,1,0,2,2,0,1,1,4200,3118,0,0.875
"369",4,2,57,1,0,1,1,0,4,4,1,1,1,4300,2034,1,0.87719298245614
"370",4,2,58,1,0,0,1,1,2,2,0,1,1,4400,3305,0,0.879310344827586
"371",4,2,59,0,0,1,1,1,2,2,0,1,1,4500,3669,0,0.88135593220339
"372",4,2,60,0,1,0,0,1,1,1,0,0,1,4600,2268,0,0.883333333333333
"373",4,2,61,1,1,1,0,0,3,3,1,0,1,4700,2283,1,0.885245901639344
"374",4,2,62,0,1,1,1,1,2,2,0,1,1,4800,2200,0,0.887096774193548
"375",4,2,63,1,0,1,0,0,3,3,1,0,1,4900,1712,1,0.888888888888889
"376",4,2,64,1,1,1,1,1,4,4,1,1,1,5000,4206,1,0.890625
"377",4,3,65,1,0,0,1,1,2,2,0,1,1,5100,2845,0,0.892307692307692
"378",4,3,66,0,0,1,1,1,2,2,0,1,1,5200,1516,0,0.893939393939394
"379",4,3,67,0,0,0,1,1,2,2,0,1,1,5300,2929,0,0.895522388059702
"380",4,3,68,0,0,1,1,1,2,2,0,1,1,5400,1373,0,0.897058823529412
"381",4,3,69,0,1,0,0,1,1,1,0,0,1,5500,2054,0,0.898550724637681
"382",4,3,70,0,1,1,0,0,1,1,0,0,1,5600,1982,0,0.9
"383",4,3,71,1,1,0,0,0,1,1,0,0,1,5700,3047,0,0.901408450704225
"384",4,3,72,0,1,0,0,0,1,1,0,0,1,5800,2334,0,0.902777777777778
"385",4,3,73,1,0,1,0,1,3,3,1,0,1,5900,1763,1,0.904109589041096
"386",4,3,74,0,1,0,0,0,1,1,0,0,1,6000,1332,0,0.905405405405405
"387",4,3,75,1,0,0,0,1,1,1,0,0,1,6100,1376,0,0.906666666666667
"388",4,3,76,1,0,1,1,1,4,4,1,1,1,6200,2050,1,0.907894736842105
"389",4,3,77,1,1,1,1,1,4,4,1,1,1,6300,1775,1,0.909090909090909
"390",4,3,78,0,1,0,1,1,2,2,0,1,1,6400,4176,0,0.91025641025641
"391",4,3,79,0,1,0,0,0,1,4,0,0,0,6300,5106,1,0.89873417721519
"392",4,3,80,0,0,0,0,0,1,1,0,0,1,6400,1174,0,0.9
"393",4,3,81,0,0,0,0,1,1,1,0,0,1,6500,1120,0,0.901234567901235
"394",4,3,82,0,0,0,0,1,1,1,0,0,1,6600,1117,0,0.902439024390244
"395",4,3,83,0,1,1,0,0,1,1,0,0,1,6700,1201,0,0.903614457831325
"396",4,3,84,0,1,0,1,0,2,2,0,1,1,6800,1491,0,0.904761904761905
"397",4,3,85,1,1,0,1,1,2,2,0,1,1,6900,3008,0,0.905882352941176
"398",4,3,86,1,1,1,0,0,3,3,1,0,1,7000,2568,1,0.906976744186046
"399",4,3,87,0,1,1,1,0,2,2,0,1,1,7100,2299,0,0.908045977011494
"400",4,3,88,1,1,1,1,1,4,4,1,1,1,7200,1864,1,0.909090909090909
"401",4,3,89,1,1,0,0,0,1,1,0,0,1,7300,4462,0,0.910112359550562
"402",4,3,90,1,1,1,1,0,4,4,1,1,1,7400,7228,1,0.911111111111111
"403",4,3,91,0,1,1,1,1,2,2,0,1,1,7500,3052,0,0.912087912087912
"404",4,3,92,1,0,0,0,0,1,1,0,0,1,7600,2225,0,0.91304347826087
"405",4,3,93,1,1,0,0,1,1,1,0,0,1,7700,2106,0,0.913978494623656
"406",4,3,94,0,1,0,1,0,2,2,0,1,1,7800,3063,0,0.914893617021277
"407",4,3,95,1,1,1,0,1,3,3,1,0,1,7900,2021,1,0.91578947368421
"408",4,3,96,0,0,1,0,1,1,1,0,0,1,8000,3638,0,0.916666666666667
"409",4,0,97,0,1,0,1,0,2,2,0,1,1,8000,12060,0,0.917525773195876
"410",4,0,98,0,1,0,0,0,1,1,0,0,1,8000,4224,0,0.918367346938776
"411",4,0,99,1,1,1,1,0,4,4,1,1,1,8000,3462,1,0.919191919191919
"412",4,0,100,1,1,0,1,1,2,2,0,1,1,8000,3018,0,0.92
"413",4,0,101,1,0,1,0,1,3,3,1,0,1,8000,2735,1,0.920792079207921
"414",4,0,102,0,0,1,0,1,1,1,0,0,1,8000,4160,0,0.92156862745098
"415",4,0,103,0,0,1,1,1,2,2,0,1,1,8000,3336,0,0.922330097087379
"416",4,0,104,1,1,1,1,1,4,4,1,1,1,8000,2680,1,0.923076923076923
"417",5,1,1,1,1,0,0,0,1,3,0,0,0,-100,11668,1,0
"418",5,1,2,0,1,0,1,1,2,3,0,1,0,-200,4665,1,0
"419",5,1,3,1,1,1,1,1,4,3,1,1,0,-300,10447,1,0
"420",5,1,4,1,0,0,1,1,2,2,0,1,1,-200,14677,0,0.25
"421",5,1,5,1,1,1,0,1,3,3,1,0,1,-100,3013,1,0.4
"422",5,1,6,1,0,0,0,0,1,4,0,0,0,-200,3237,1,0.333333333333333
"423",5,1,7,0,0,1,0,0,1,4,0,0,0,-300,5029,1,0.285714285714286
"424",5,1,8,1,1,1,1,0,4,3,1,1,0,-400,6259,1,0.25
"425",5,1,9,0,0,0,1,1,2,2,0,1,1,-300,14273,0,0.333333333333333
"426",5,1,10,1,1,0,1,1,2,3,0,1,0,-400,7711,1,0.3
"427",5,1,11,0,1,1,1,1,2,3,0,1,0,-500,7803,1,0.272727272727273
"428",5,1,12,1,1,1,1,0,4,3,1,1,0,-600,6444,1,0.25
"429",5,1,13,0,1,1,0,1,1,3,0,0,0,-700,2258,1,0.230769230769231
"430",5,1,14,1,0,1,1,1,4,2,1,1,0,-800,13199,0,0.214285714285714
"431",5,1,15,0,1,1,1,0,2,2,0,1,1,-700,7064,0,0.266666666666667
"432",5,1,16,0,0,0,1,0,2,3,0,1,0,-800,5389,1,0.25
"433",5,1,17,0,1,0,1,1,2,2,0,1,1,-700,6312,0,0.294117647058824
"434",5,1,18,1,1,0,0,0,1,3,0,0,0,-800,2387,1,0.277777777777778
"435",5,1,19,0,0,0,1,1,2,4,0,1,0,-900,3405,1,0.263157894736842
"436",5,1,20,0,0,1,1,0,2,4,0,1,0,-1000,2588,1,0.25
"437",5,1,21,1,0,1,0,0,3,4,1,0,0,-1100,30342,1,0.238095238095238
"438",5,1,22,0,1,1,0,1,1,4,0,0,0,-1200,2433,1,0.227272727272727
"439",5,1,23,0,1,0,1,0,2,2,0,1,1,-1100,2745,0,0.260869565217391
"440",5,1,24,0,0,0,0,0,1,3,0,0,0,-1200,5971,1,0.25
"441",5,1,25,0,1,1,1,0,2,2,0,1,1,-1100,6437,0,0.28
"442",5,1,26,0,0,1,1,1,2,1,0,1,0,-1200,4084,0,0.269230769230769
"443",5,1,27,0,0,1,0,1,1,3,0,0,0,-1300,3329,1,0.259259259259259
"444",5,1,28,1,1,0,1,1,2,3,0,1,0,-1400,4637,1,0.25
"445",5,1,29,1,0,0,1,0,2,2,0,1,1,-1300,4828,0,0.275862068965517
"446",5,1,30,1,0,1,0,0,3,3,1,0,1,-1200,6356,1,0.3
"447",5,1,31,0,0,1,0,1,1,2,0,0,0,-1300,1688,0,0.290322580645161
"448",5,1,32,1,0,0,1,1,2,2,0,1,1,-1200,6590,0,0.3125
"449",5,2,33,0,1,0,1,1,2,3,0,1,0,-1300,17342,1,0.303030303030303
"450",5,2,34,1,0,1,1,1,4,3,1,1,0,-1400,1802,1,0.294117647058824
"451",5,2,35,1,1,1,1,1,4,2,1,1,0,-1500,3762,0,0.285714285714286
"452",5,2,36,0,0,0,0,1,1,2,0,0,0,-1600,12571,0,0.277777777777778
"453",5,2,37,1,0,1,0,1,3,3,1,0,1,-1500,4996,1,0.297297297297297
"454",5,2,38,0,1,1,1,1,2,2,0,1,1,-1400,2358,0,0.315789473684211
"455",5,2,39,0,0,1,0,1,1,4,0,0,0,-1500,4769,1,0.307692307692308
"456",5,2,40,1,1,0,1,0,2,2,0,1,1,-1400,3532,0,0.325
"457",5,2,41,1,1,0,1,1,2,2,0,1,1,-1300,1768,0,0.341463414634146
"458",5,2,42,0,0,1,1,1,2,4,0,1,0,-1400,2849,1,0.333333333333333
"459",5,2,43,0,1,1,0,1,1,4,0,0,0,-1500,4687,1,0.325581395348837
"460",5,2,44,0,1,1,0,0,1,3,0,0,0,-1600,2469,1,0.318181818181818
"461",5,2,45,1,1,0,1,0,2,2,0,1,1,-1500,4476,0,0.333333333333333
"462",5,2,46,0,1,1,1,1,2,1,0,1,0,-1600,7906,0,0.326086956521739
"463",5,2,47,1,0,0,0,0,1,3,0,0,0,-1700,1719,1,0.319148936170213
"464",5,2,48,0,0,0,0,1,1,1,0,0,1,-1600,2226,0,0.333333333333333
"465",5,2,49,0,0,0,1,1,2,2,0,1,1,-1500,1682,0,0.346938775510204
"466",5,2,50,1,0,1,1,1,4,1,1,1,0,-1600,3543,0,0.34
"467",5,2,51,0,0,1,1,0,2,4,0,1,0,-1700,1961,1,0.333333333333333
"468",5,2,52,1,0,1,1,0,4,2,1,1,0,-1800,2140,0,0.326923076923077
"469",5,2,53,1,0,0,0,0,1,3,0,0,0,-1900,9525,1,0.320754716981132
"470",5,2,54,1,1,0,0,1,1,1,0,0,1,-1800,2010,0,0.333333333333333
"471",5,2,55,1,1,1,0,0,3,3,1,0,1,-1700,1826,1,0.345454545454545
"472",5,2,56,0,0,0,0,0,1,1,0,0,1,-1600,1811,0,0.357142857142857
"473",5,2,57,1,0,0,0,1,1,1,0,0,1,-1500,1644,0,0.368421052631579
"474",5,2,58,0,1,0,0,1,1,1,0,0,1,-1400,1387,0,0.379310344827586
"475",5,2,59,0,1,0,1,0,2,2,0,1,1,-1300,1693,0,0.389830508474576
"476",5,2,60,0,1,1,0,0,1,3,0,0,0,-1400,4395,1,0.383333333333333
"477",5,2,61,1,1,1,0,1,3,1,1,0,0,-1500,4203,0,0.377049180327869
"478",5,2,62,1,1,0,1,0,2,2,0,1,1,-1400,1708,0,0.387096774193548
"479",5,2,63,1,0,0,1,1,2,2,0,1,1,-1300,1521,0,0.396825396825397
"480",5,2,64,0,0,1,1,0,2,4,0,1,0,-1400,8652,1,0.390625
"481",5,3,65,1,0,1,1,0,4,2,1,1,0,-1500,1980,0,0.384615384615385
"482",5,3,66,0,1,0,1,0,2,2,0,1,1,-1400,1292,0,0.393939393939394
"483",5,3,67,0,1,0,0,1,1,1,0,0,1,-1300,3497,0,0.402985074626866
"484",5,3,68,1,0,0,0,1,1,1,0,0,1,-1200,1408,0,0.411764705882353
"485",5,3,69,1,1,0,0,1,1,1,0,0,1,-1100,744,0,0.420289855072464
"486",5,3,70,1,1,1,1,1,4,2,1,1,0,-1200,14939,0,0.414285714285714
"487",5,3,71,0,0,0,0,0,1,1,0,0,1,-1100,1676,0,0.422535211267606
"488",5,3,72,0,0,1,0,0,1,1,0,0,1,-1000,8075,0,0.430555555555556
"489",5,3,73,1,0,1,0,0,3,1,1,0,0,-1100,1448,0,0.424657534246575
"490",5,3,74,0,0,1,0,0,1,1,0,0,1,-1000,1639,0,0.432432432432432
"491",5,3,75,1,0,0,0,1,1,1,0,0,1,-900,1216,0,0.44
"492",5,3,76,0,0,0,0,1,1,1,0,0,1,-800,1952,0,0.447368421052632
"493",5,3,77,0,1,0,0,0,1,3,0,0,0,-900,3028,1,0.441558441558442
"494",5,3,78,0,0,0,1,0,2,2,0,1,1,-800,1780,0,0.448717948717949
"495",5,3,79,0,0,1,1,1,2,2,0,1,1,-700,3261,0,0.455696202531646
"496",5,3,80,1,0,1,0,1,3,4,1,0,0,-800,4028,1,0.45
"497",5,3,81,1,0,1,1,0,4,4,1,1,1,-700,3387,1,0.45679012345679
"498",5,3,82,1,1,1,0,0,3,3,1,0,1,-600,4988,1,0.463414634146341
"499",5,3,83,1,1,0,0,0,1,1,0,0,1,-500,1566,0,0.469879518072289
"500",5,3,84,0,1,0,0,0,1,1,0,0,1,-400,1089,0,0.476190476190476
"501",5,3,85,0,1,0,0,0,1,1,0,0,1,-300,1494,0,0.482352941176471
"502",5,3,86,1,1,1,1,0,4,4,1,1,1,-200,6404,1,0.488372093023256
"503",5,3,87,1,1,1,0,0,3,2,1,0,0,-300,4332,0,0.482758620689655
"504",5,3,88,0,1,1,0,0,1,3,0,0,0,-400,1902,1,0.477272727272727
"505",5,3,89,0,0,0,1,0,2,2,0,1,1,-300,2068,0,0.48314606741573
"506",5,3,90,0,1,0,0,1,1,1,0,0,1,-200,2754,0,0.488888888888889
"507",5,3,91,1,0,1,0,1,3,3,1,0,1,-100,3381,1,0.494505494505495
"508",5,3,92,1,0,0,1,0,2,2,0,1,1,0,887,0,0.5
"509",5,3,93,1,1,1,0,1,3,3,1,0,1,100,15029,1,0.505376344086022
"510",5,3,94,1,0,0,1,0,2,2,0,1,1,200,1181,0,0.51063829787234
"511",5,3,95,1,1,0,0,1,1,1,0,0,1,300,3551,0,0.515789473684211
"512",5,3,96,0,1,1,1,0,2,4,0,1,0,200,6299,1,0.510416666666667
"513",5,0,97,1,0,1,0,1,3,3,1,0,1,200,4725,1,0.515463917525773
"514",5,0,98,1,1,1,1,0,4,4,1,1,1,200,5383,1,0.520408163265306
"515",5,0,99,0,1,0,0,0,1,1,0,0,1,200,2885,0,0.525252525252525
"516",5,0,100,0,0,1,1,1,2,3,0,1,0,200,3520,1,0.52
"517",5,0,101,0,1,0,1,0,2,2,0,1,1,200,1320,0,0.524752475247525
"518",5,0,102,1,1,1,1,1,4,4,1,1,1,200,4306,1,0.529411764705882
"519",5,0,103,1,1,0,1,1,2,2,0,1,1,200,2285,0,0.533980582524272
"520",5,0,104,0,0,1,0,1,1,3,0,0,0,200,2847,1,0.528846153846154
"521",6,1,1,1,1,0,1,0,2,1,0,1,0,-100,5448,0,0
"522",6,1,2,0,1,1,0,0,1,1,0,0,1,0,7430,0,0.5
"523",6,1,3,1,1,1,1,1,4,4,1,1,1,100,5390,1,0.666666666666667
"524",6,1,4,1,1,0,0,0,1,1,0,0,1,200,2535,0,0.75
"525",6,1,5,0,0,0,1,0,2,3,0,1,0,100,2562,1,0.6
"526",6,1,6,0,0,1,0,1,1,3,0,0,0,0,4885,1,0.5
"527",6,1,7,1,1,0,0,1,1,1,0,0,1,100,13379,0,0.571428571428571
"528",6,1,8,1,0,0,1,0,2,4,0,1,0,0,4548,1,0.5
"529",6,1,9,0,0,1,0,0,1,1,0,0,1,100,4999,0,0.555555555555556
"530",6,1,10,0,1,1,0,1,1,1,0,0,1,200,4864,0,0.6
"531",6,1,11,1,1,0,1,0,2,2,0,1,1,300,2704,0,0.636363636363636
"532",6,1,12,1,0,0,1,1,2,2,0,1,1,400,9197,0,0.666666666666667
"533",6,1,13,0,0,0,0,1,1,1,0,0,1,500,1687,0,0.692307692307692
"534",6,1,14,1,1,0,1,1,2,2,0,1,1,600,1132,0,0.714285714285714
"535",6,1,15,0,1,0,0,0,1,1,0,0,1,700,960,0,0.733333333333333
"536",6,1,16,1,1,1,1,0,4,2,1,1,0,600,2277,0,0.6875
"537",6,1,17,1,1,0,0,1,1,1,0,0,1,700,2608,0,0.705882352941177
"538",6,1,18,0,0,0,1,1,2,2,0,1,1,800,2225,0,0.722222222222222
"539",6,1,19,1,1,1,1,0,4,4,1,1,1,900,2809,1,0.736842105263158
"540",6,1,20,1,0,0,1,0,2,2,0,1,1,1000,2503,0,0.75
"541",6,1,21,0,1,0,0,1,1,1,0,0,1,1100,2685,0,0.761904761904762
"542",6,1,22,0,1,0,1,1,2,2,0,1,1,1200,1625,0,0.772727272727273
"543",6,1,23,0,0,1,1,0,2,4,0,1,0,1100,1649,1,0.739130434782609
"544",6,1,24,0,1,0,1,0,2,2,0,1,1,1200,4336,0,0.75
"545",6,1,25,0,0,0,0,0,1,1,0,0,1,1300,3100,0,0.76
"546",6,1,26,1,1,0,0,0,1,2,0,0,0,1200,3617,0,0.730769230769231
"547",6,1,27,1,1,1,0,1,3,1,1,0,0,1100,2712,0,0.703703703703704
"548",6,1,28,0,0,0,0,0,1,1,0,0,1,1200,1981,0,0.714285714285714
"549",6,1,29,1,0,0,1,1,2,4,0,1,0,1100,2703,1,0.689655172413793
"550",6,1,30,1,1,1,1,0,4,2,1,1,0,1000,11916,0,0.666666666666667
"551",6,1,31,1,0,0,0,0,1,1,0,0,1,1100,2070,0,0.67741935483871
"552",6,1,32,0,1,1,1,1,2,4,0,1,0,1000,4494,1,0.65625
"553",6,2,33,0,0,1,0,1,1,1,0,0,1,1100,1770,0,0.666666666666667
"554",6,2,34,0,1,0,1,0,2,2,0,1,1,1200,2868,0,0.676470588235294
"555",6,2,35,1,0,1,0,1,3,1,1,0,0,1100,1803,0,0.657142857142857
"556",6,2,36,1,0,1,0,0,3,3,1,0,1,1200,1850,1,0.666666666666667
"557",6,2,37,0,1,1,1,0,2,4,0,1,0,1100,5842,1,0.648648648648649
"558",6,2,38,1,0,1,1,1,4,2,1,1,0,1000,1770,0,0.631578947368421
"559",6,2,39,1,0,0,1,1,2,4,0,1,0,900,1347,1,0.615384615384615
"560",6,2,40,0,1,0,0,1,1,1,0,0,1,1000,998,0,0.625
"561",6,2,41,1,1,0,1,1,2,2,0,1,1,1100,2200,0,0.634146341463415
"562",6,2,42,1,0,1,0,1,3,3,1,0,1,1200,6288,1,0.642857142857143
"563",6,2,43,1,0,0,0,1,1,3,0,0,0,1100,3565,1,0.627906976744186
"564",6,2,44,0,0,0,1,1,2,2,0,1,1,1200,2608,0,0.636363636363636
"565",6,2,45,0,1,1,0,0,1,1,0,0,1,1300,3001,0,0.644444444444444
"566",6,2,46,0,1,1,0,0,1,1,0,0,1,1400,2451,0,0.652173913043478
"567",6,2,47,1,1,1,0,0,3,3,1,0,1,1500,2506,1,0.659574468085106
"568",6,2,48,0,0,0,0,0,1,1,0,0,1,1600,1224,0,0.666666666666667
"569",6,2,49,0,1,1,1,1,2,2,0,1,1,1700,4624,0,0.673469387755102
"570",6,2,50,0,0,0,1,0,2,2,0,1,1,1800,2184,0,0.68
"571",6,2,51,1,1,1,0,1,3,3,1,0,1,1900,2297,1,0.686274509803922
"572",6,2,52,0,0,0,1,0,2,2,0,1,1,2000,1150,0,0.692307692307692
"573",6,2,53,0,1,1,0,1,1,1,0,0,1,2100,3361,0,0.69811320754717
"574",6,2,54,0,0,0,1,1,2,2,0,1,1,2200,900,0,0.703703703703704
"575",6,2,55,1,1,1,0,0,3,3,1,0,1,2300,1393,1,0.709090909090909
"576",6,2,56,1,0,1,0,1,3,3,1,0,1,2400,3164,1,0.714285714285714
"577",6,2,57,1,0,1,1,0,4,4,1,1,1,2500,2053,1,0.719298245614035
"578",6,2,58,1,1,0,1,0,2,2,0,1,1,2600,1340,0,0.724137931034483
"579",6,2,59,0,1,0,1,1,2,2,0,1,1,2700,1760,0,0.728813559322034
"580",6,2,60,1,0,0,0,1,1,1,0,0,1,2800,3323,0,0.733333333333333
"581",6,2,61,1,0,1,1,1,4,4,1,1,1,2900,4703,1,0.737704918032787
"582",6,2,62,0,1,0,0,0,1,1,0,0,1,3000,2307,0,0.741935483870968
"583",6,2,63,1,1,0,1,1,2,2,0,1,1,3100,3776,0,0.746031746031746
"584",6,2,64,0,0,1,1,0,2,2,0,1,1,3200,3194,0,0.75
"585",6,3,65,0,1,1,0,1,1,1,0,0,1,3300,1802,0,0.753846153846154
"586",6,3,66,1,1,1,0,1,3,3,1,0,1,3400,3621,1,0.757575757575758
"587",6,3,67,0,1,0,0,1,1,1,0,0,1,3500,1678,0,0.761194029850746
"588",6,3,68,0,0,1,0,0,1,1,0,0,1,3600,1691,0,0.764705882352941
"589",6,3,69,1,0,0,0,1,1,1,0,0,1,3700,1538,0,0.768115942028985
"590",6,3,70,1,0,1,1,1,4,4,1,1,1,3800,2142,1,0.771428571428571
"591",6,3,71,1,0,0,0,0,1,1,0,0,1,3900,1488,0,0.774647887323944
"592",6,3,72,0,1,1,1,1,2,2,0,1,1,4000,2750,0,0.777777777777778
"593",6,3,73,1,0,1,0,0,3,3,1,0,1,4100,3048,1,0.780821917808219
"594",6,3,74,0,0,1,1,0,2,2,0,1,1,4200,2768,0,0.783783783783784
"595",6,3,75,0,1,0,1,1,2,2,0,1,1,4300,3545,0,0.786666666666667
"596",6,3,76,0,0,1,1,1,2,2,0,1,1,4400,1869,0,0.789473684210526
"597",6,3,77,1,1,1,1,1,4,4,1,1,1,4500,1698,1,0.792207792207792
"598",6,3,78,1,0,1,0,0,3,3,1,0,1,4600,1429,1,0.794871794871795
"599",6,3,79,1,1,0,0,0,1,1,0,0,1,4700,5071,0,0.79746835443038
"600",6,3,80,1,1,0,0,1,1,1,0,0,1,4800,1285,0,0.8
"601",6,3,81,1,0,0,1,0,2,2,0,1,1,4900,2043,0,0.802469135802469
"602",6,3,82,1,0,0,0,0,1,1,0,0,1,5000,2786,0,0.804878048780488
"603",6,3,83,0,0,0,0,1,1,1,0,0,1,5100,1556,0,0.807228915662651
"604",6,3,84,1,1,1,0,0,3,3,1,0,1,5200,1783,1,0.80952380952381
"605",6,3,85,0,1,0,1,0,2,2,0,1,1,5300,2865,0,0.811764705882353
"606",6,3,86,0,1,0,0,0,1,1,0,0,1,5400,2711,0,0.813953488372093
"607",6,3,87,0,1,1,1,0,2,2,0,1,1,5500,5020,0,0.816091954022989
"608",6,3,88,1,1,1,1,1,4,4,1,1,1,5600,2549,1,0.818181818181818
"609",6,3,89,0,0,1,0,0,1,1,0,0,1,5700,1782,0,0.820224719101124
"610",6,3,90,0,0,1,1,1,2,2,0,1,1,5800,1721,0,0.822222222222222
"611",6,3,91,0,0,1,1,1,2,2,0,1,1,5900,2172,0,0.824175824175824
"612",6,3,92,1,0,1,1,0,4,4,1,1,1,6000,2118,1,0.826086956521739
"613",6,3,93,0,1,1,1,0,2,2,0,1,1,6100,3866,0,0.827956989247312
"614",6,3,94,0,0,1,0,1,1,1,0,0,1,6200,3864,0,0.829787234042553
"615",6,3,95,0,0,0,0,1,1,1,0,0,1,6300,1359,0,0.831578947368421
"616",6,3,96,1,0,1,1,0,4,4,1,1,1,6400,3688,1,0.833333333333333
"617",6,0,97,1,1,1,1,1,4,4,1,1,1,6400,9415,1,0.835051546391753
"618",6,0,98,0,1,0,1,0,2,2,0,1,1,6400,5435,0,0.836734693877551
"619",6,0,99,0,0,1,0,1,1,1,0,0,1,6400,4657,0,0.838383838383838
"620",6,0,100,0,1,0,0,0,1,1,0,0,1,6400,4316,0,0.84
"621",6,0,101,0,0,1,1,1,2,2,0,1,1,6400,4102,0,0.841584158415842
"622",6,0,102,1,1,1,1,0,4,4,1,1,1,6400,3031,1,0.843137254901961
"623",6,0,103,1,0,1,0,1,3,3,1,0,1,6400,2676,1,0.844660194174757
"624",6,0,104,1,1,0,1,1,2,2,0,1,1,6400,7536,0,0.846153846153846
"625",7,1,1,0,1,0,1,0,2,1,0,1,0,-100,16383,0,0
"626",7,1,2,0,0,0,0,1,1,2,0,0,0,-200,5792,0,0
"627",7,1,3,0,0,0,1,1,2,2,0,1,1,-100,8034,0,0.333333333333333
"628",7,1,4,0,1,1,0,1,1,4,0,0,0,-200,4066,1,0.25
"629",7,1,5,0,0,0,1,0,2,2,0,1,1,-100,3031,0,0.4
"630",7,1,6,1,1,1,0,1,3,4,1,0,0,-200,3718,1,0.333333333333333
"631",7,1,7,1,0,1,0,1,3,4,1,0,0,-300,2067,1,0.285714285714286
"632",7,1,8,1,0,1,0,0,3,4,1,0,0,-400,5776,1,0.25
"633",7,1,9,0,0,0,0,0,1,1,0,0,1,-300,5595,0,0.333333333333333
"634",7,1,10,0,1,0,1,1,2,1,0,1,0,-400,1324,0,0.3
"635",7,1,11,1,1,0,0,0,1,3,0,0,0,-500,3072,1,0.272727272727273
"636",7,1,12,0,0,1,0,0,1,2,0,0,0,-600,3893,0,0.25
"637",7,1,13,0,0,1,1,0,2,2,0,1,1,-500,5122,0,0.307692307692308
"638",7,1,14,0,1,1,1,1,2,2,0,1,1,-400,3255,0,0.357142857142857
"639",7,1,15,1,1,0,0,0,1,3,0,0,0,-500,2396,1,0.333333333333333
"640",7,1,16,0,0,1,0,1,1,1,0,0,1,-400,2246,0,0.375
"641",7,1,17,0,1,1,1,0,2,1,0,1,0,-500,4150,0,0.352941176470588
"642",7,1,18,0,1,1,1,0,2,1,0,1,0,-600,3776,0,0.333333333333333
"643",7,1,19,1,1,0,1,0,2,3,0,1,0,-700,3226,1,0.315789473684211
"644",7,1,20,0,0,1,1,1,2,2,0,1,1,-600,2834,0,0.35
"645",7,1,21,0,0,1,0,0,1,1,0,0,1,-500,3082,0,0.380952380952381
"646",7,1,22,1,1,1,0,1,3,4,1,0,0,-600,2551,1,0.363636363636364
"647",7,1,23,1,1,1,1,0,4,4,1,1,1,-500,1938,1,0.391304347826087
"648",7,1,24,1,0,1,1,0,4,4,1,1,1,-400,1556,1,0.416666666666667
"649",7,1,25,1,1,0,1,1,2,3,0,1,0,-500,4862,1,0.4
"650",7,1,26,0,1,1,1,0,2,2,0,1,1,-400,5156,0,0.423076923076923
"651",7,1,27,0,0,1,1,1,2,2,0,1,1,-300,2967,0,0.444444444444444
"652",7,1,28,0,1,0,0,0,1,1,0,0,1,-200,1593,0,0.464285714285714
"653",7,1,29,0,0,1,0,1,1,2,0,0,0,-300,2515,0,0.448275862068966
"654",7,1,30,1,1,1,0,1,3,3,1,0,1,-200,2582,1,0.466666666666667
"655",7,1,31,0,1,0,1,1,2,1,0,1,0,-300,2161,0,0.451612903225806
"656",7,1,32,0,0,0,1,1,2,1,0,1,0,-400,2315,0,0.4375
"657",7,2,33,1,1,1,0,0,3,4,1,0,0,-500,7048,1,0.424242424242424
"658",7,2,34,1,1,0,0,1,1,1,0,0,1,-400,1495,0,0.441176470588235
"659",7,2,35,1,1,0,0,1,1,1,0,0,1,-300,2595,0,0.457142857142857
"660",7,2,36,1,0,1,1,0,4,4,1,1,1,-200,3270,1,0.472222222222222
"661",7,2,37,1,0,1,1,1,4,4,1,1,1,-100,1258,1,0.486486486486487
"662",7,2,38,0,0,0,1,0,2,1,0,1,0,-200,2288,0,0.473684210526316
"663",7,2,39,0,1,0,1,1,2,2,0,1,1,-100,2582,0,0.487179487179487
"664",7,2,40,0,0,0,0,1,1,1,0,0,1,0,1102,0,0.5
"665",7,2,41,1,0,0,0,0,1,1,0,0,1,100,4163,0,0.51219512195122
"666",7,2,42,1,0,1,1,1,4,4,1,1,1,200,2502,1,0.523809523809524
"667",7,2,43,0,0,0,0,1,1,1,0,0,1,300,1873,0,0.534883720930233
"668",7,2,44,1,0,0,0,0,1,1,0,0,1,400,4895,0,0.545454545454545
"669",7,2,45,1,1,1,0,0,3,2,1,0,0,300,2708,0,0.533333333333333
"670",7,2,46,0,1,0,0,1,1,1,0,0,1,400,1905,0,0.543478260869565
"671",7,2,47,0,1,0,1,0,2,2,0,1,1,500,1974,0,0.553191489361702
"672",7,2,48,1,0,0,1,0,2,2,0,1,1,600,4927,0,0.5625
"673",7,2,49,1,0,0,1,0,2,2,0,1,1,700,1540,0,0.571428571428571
"674",7,2,50,1,0,0,1,1,2,2,0,1,1,800,694,0,0.58
"675",7,2,51,1,1,0,1,0,2,2,0,1,1,900,1252,0,0.588235294117647
"676",7,2,52,1,1,0,1,0,2,2,0,1,1,1000,2363,0,0.596153846153846
"677",7,2,53,1,1,1,1,0,4,4,1,1,1,1100,4293,1,0.60377358490566
"678",7,2,54,1,0,1,1,0,4,4,1,1,1,1200,1050,1,0.611111111111111
"679",7,2,55,0,1,1,0,0,1,2,0,0,0,1100,3120,0,0.6
"680",7,2,56,0,0,0,0,0,1,1,0,0,1,1200,1692,0,0.607142857142857
"681",7,2,57,1,0,1,0,1,3,1,1,0,0,1100,1907,0,0.596491228070175
"682",7,2,58,1,1,1,1,0,4,4,1,1,1,1200,1766,1,0.603448275862069
"683",7,2,59,1,0,0,0,1,1,3,0,0,0,1100,6007,1,0.593220338983051
"684",7,2,60,1,1,1,1,1,4,4,1,1,1,1200,1496,1,0.6
"685",7,2,61,0,0,1,1,0,2,2,0,1,1,1300,2219,0,0.60655737704918
"686",7,2,62,1,0,0,1,1,2,2,0,1,1,1400,5012,0,0.612903225806452
"687",7,2,63,0,1,1,1,1,2,2,0,1,1,1500,3348,0,0.619047619047619
"688",7,2,64,0,1,1,0,1,1,1,0,0,1,1600,3783,0,0.625
"689",7,3,65,0,1,0,0,1,1,1,0,0,1,1700,1227,0,0.630769230769231
"690",7,3,66,0,1,0,0,0,1,1,0,0,1,1800,1305,0,0.636363636363636
"691",7,3,67,1,0,1,0,0,3,2,1,0,0,1700,4606,0,0.626865671641791
"692",7,3,68,1,0,0,0,1,1,1,0,0,1,1800,2439,0,0.632352941176471
"693",7,3,69,1,1,0,0,0,1,3,0,0,0,1700,2021,1,0.623188405797101
"694",7,3,70,0,0,0,1,0,2,2,0,1,1,1800,2085,0,0.628571428571429
"695",7,3,71,1,0,0,0,1,1,3,0,0,0,1700,7315,1,0.619718309859155
"696",7,3,72,1,0,0,1,1,2,3,0,1,0,1600,1439,1,0.611111111111111
"697",7,3,73,0,1,0,1,0,2,2,0,1,1,1700,1805,0,0.616438356164384
"698",7,3,74,0,1,0,0,1,1,1,0,0,1,1800,1039,0,0.621621621621622
"699",7,3,75,0,0,1,1,1,2,2,0,1,1,1900,2583,0,0.626666666666667
"700",7,3,76,1,0,1,0,0,3,1,1,0,0,1800,2688,0,0.618421052631579
"701",7,3,77,1,0,1,0,1,3,3,1,0,1,1900,1413,1,0.623376623376623
"702",7,3,78,1,1,0,1,1,2,2,0,1,1,2000,2862,0,0.628205128205128
"703",7,3,79,0,0,1,1,0,2,2,0,1,1,2100,2204,0,0.632911392405063
"704",7,3,80,0,1,0,0,0,1,1,0,0,1,2200,3526,0,0.6375
"705",7,3,81,0,1,1,1,1,2,2,0,1,1,2300,2432,0,0.641975308641975
"706",7,3,82,1,0,0,1,0,2,2,0,1,1,2400,2848,0,0.646341463414634
"707",7,3,83,1,0,0,0,0,1,1,0,0,1,2500,1215,0,0.650602409638554
"708",7,3,84,0,0,1,0,1,1,1,0,0,1,2600,2207,0,0.654761904761905
"709",7,3,85,1,1,1,0,0,3,1,1,0,0,2500,2121,0,0.647058823529412
"710",7,3,86,1,1,1,1,1,4,2,1,1,0,2400,1046,0,0.63953488372093
"711",7,3,87,1,0,1,1,1,4,4,1,1,1,2500,1746,1,0.64367816091954
"712",7,3,88,0,0,0,1,1,2,2,0,1,1,2600,2156,0,0.647727272727273
"713",7,3,89,1,1,0,1,1,2,2,0,1,1,2700,855,0,0.651685393258427
"714",7,3,90,0,1,1,0,0,1,1,0,0,1,2800,1573,0,0.655555555555556
"715",7,3,91,1,1,1,1,1,4,4,1,1,1,2900,1599,1,0.659340659340659
"716",7,3,92,0,1,1,0,1,1,1,0,0,1,3000,1631,0,0.66304347826087
"717",7,3,93,0,0,0,0,0,1,1,0,0,1,3100,1248,0,0.666666666666667
"718",7,3,94,1,1,0,0,1,1,1,0,0,1,3200,5350,0,0.670212765957447
"719",7,3,95,0,1,1,0,0,1,1,0,0,1,3300,2402,0,0.673684210526316
"720",7,3,96,0,0,1,0,0,1,1,0,0,1,3400,3787,0,0.677083333333333
"721",7,0,97,0,1,0,0,0,1,1,0,0,1,3400,5391,0,0.680412371134021
"722",7,0,98,1,1,1,1,0,4,2,1,1,0,3400,5284,0,0.673469387755102
"723",7,0,99,0,0,1,0,1,1,1,0,0,1,3400,1383,0,0.676767676767677
"724",7,0,100,1,1,1,1,1,4,3,1,1,0,3400,2310,1,0.67
"725",7,0,101,0,0,1,1,1,2,2,0,1,1,3400,1911,0,0.673267326732673
"726",7,0,102,1,1,0,1,1,2,2,0,1,1,3400,1378,0,0.676470588235294
"727",7,0,103,1,0,1,0,1,3,1,1,0,0,3400,5114,0,0.669902912621359
"728",7,0,104,0,1,0,1,0,2,1,0,1,0,3400,914,0,0.663461538461538
"729",8,1,1,1,0,1,0,1,3,2,1,0,0,-100,8330,0,0
"730",8,1,2,0,1,0,1,0,2,1,0,1,0,-200,3109,0,0
"731",8,1,3,1,1,0,0,1,1,2,0,0,0,-300,3521,0,0
"732",8,1,4,1,0,0,0,1,1,1,0,0,1,-200,1701,0,0.25
"733",8,1,5,1,0,0,1,1,2,1,0,1,0,-300,14681,0,0.2
"734",8,1,6,1,0,1,1,1,4,4,1,1,1,-200,4598,1,0.333333333333333
"735",8,1,7,0,1,1,0,1,1,3,0,0,0,-300,5359,1,0.285714285714286
"736",8,1,8,1,1,1,1,1,4,4,1,1,1,-200,2817,1,0.375
"737",8,1,9,1,1,1,1,1,4,4,1,1,1,-100,1897,1,0.444444444444444
"738",8,1,10,1,0,1,0,0,3,2,1,0,0,-200,11637,0,0.4
"739",8,1,11,1,1,0,1,0,2,3,0,1,0,-300,1987,1,0.363636363636364
"740",8,1,12,0,1,0,1,1,2,1,0,1,0,-400,3029,0,0.333333333333333
"741",8,1,13,1,0,1,1,1,4,4,1,1,1,-300,4555,1,0.384615384615385
"742",8,1,14,0,1,0,0,0,1,2,0,0,0,-400,3862,0,0.357142857142857
"743",8,1,15,1,1,1,0,1,3,2,1,0,0,-500,1908,0,0.333333333333333
"744",8,1,16,1,0,1,0,1,3,3,1,0,1,-400,1463,1,0.375
"745",8,1,17,0,0,1,1,0,2,2,0,1,1,-300,24327,0,0.411764705882353
"746",8,1,18,0,0,0,1,0,2,1,0,1,0,-400,2707,0,0.388888888888889
"747",8,1,19,1,1,1,1,0,4,2,1,1,0,-500,1929,0,0.368421052631579
"748",8,1,20,1,0,1,1,0,4,4,1,1,1,-400,1745,1,0.4
"749",8,1,21,1,1,0,1,1,2,2,0,1,1,-300,3771,0,0.428571428571429
"750",8,1,22,1,0,0,1,1,2,2,0,1,1,-200,1348,0,0.454545454545455
"751",8,1,23,1,0,0,1,0,2,2,0,1,1,-100,1511,0,0.478260869565217
"752",8,1,24,0,0,1,0,0,1,3,0,0,0,-200,5628,1,0.458333333333333
"753",8,1,25,0,0,0,0,1,1,1,0,0,1,-100,1669,0,0.48
"754",8,1,26,0,1,1,0,0,1,1,0,0,1,0,2346,0,0.5
"755",8,1,27,1,1,0,0,1,1,1,0,0,1,100,1533,0,0.518518518518518
"756",8,1,28,0,1,0,1,1,2,2,0,1,1,200,6338,0,0.535714285714286
"757",8,1,29,1,0,0,0,0,1,1,0,0,1,300,1052,0,0.551724137931034
"758",8,1,30,1,1,1,1,0,4,4,1,1,1,400,1660,1,0.566666666666667
"759",8,1,31,0,0,1,0,1,1,1,0,0,1,500,3217,0,0.580645161290323
"760",8,1,32,0,1,1,1,1,2,4,0,1,0,400,5578,1,0.5625
"761",8,2,33,0,1,1,1,1,2,2,0,1,1,500,2331,0,0.575757575757576
"762",8,2,34,1,1,0,1,0,2,2,0,1,1,600,2247,0,0.588235294117647
"763",8,2,35,1,1,0,1,0,2,2,0,1,1,700,3797,0,0.6
"764",8,2,36,1,1,1,0,0,3,1,1,0,0,600,2095,0,0.583333333333333
"765",8,2,37,0,1,1,1,0,2,1,0,1,0,500,1363,0,0.567567567567568
"766",8,2,38,0,0,1,0,0,1,2,0,0,0,400,1957,0,0.552631578947368
"767",8,2,39,0,0,1,1,1,2,2,0,1,1,500,2079,0,0.564102564102564
"768",8,2,40,1,1,1,0,0,3,3,1,0,1,600,2286,1,0.575
"769",8,2,41,0,0,1,0,1,1,2,0,0,0,500,1307,0,0.560975609756098
"770",8,2,42,0,0,1,1,1,2,2,0,1,1,600,1391,0,0.571428571428571
"771",8,2,43,0,0,0,1,1,2,2,0,1,1,700,3081,0,0.581395348837209
"772",8,2,44,1,0,0,0,0,1,1,0,0,1,800,3629,0,0.590909090909091
"773",8,2,45,1,1,0,0,1,1,1,0,0,1,900,1070,0,0.6
"774",8,2,46,1,0,1,1,0,4,4,1,1,1,1000,3219,1,0.608695652173913
"775",8,2,47,0,0,1,1,0,2,2,0,1,1,1100,4003,0,0.617021276595745
"776",8,2,48,1,0,0,1,0,2,3,0,1,0,1000,2860,1,0.604166666666667
"777",8,2,49,0,1,1,0,1,1,1,0,0,1,1100,1394,0,0.612244897959184
"778",8,2,50,0,0,1,0,1,1,1,0,0,1,1200,7307,0,0.62
"779",8,2,51,0,1,0,0,0,1,1,0,0,1,1300,1480,0,0.627450980392157
"780",8,2,52,1,0,0,1,1,2,2,0,1,1,1400,4470,0,0.634615384615385
"781",8,2,53,0,0,0,0,0,1,1,0,0,1,1500,965,0,0.641509433962264
"782",8,2,54,0,0,0,1,0,2,2,0,1,1,1600,1631,0,0.648148148148148
"783",8,2,55,1,0,0,0,1,1,2,0,0,0,1500,1270,0,0.636363636363636
"784",8,2,56,0,1,0,1,0,2,2,0,1,1,1600,1052,0,0.642857142857143
"785",8,2,57,1,1,0,0,0,1,1,0,0,1,1700,1041,0,0.649122807017544
"786",8,2,58,1,1,0,0,0,1,1,0,0,1,1800,1450,0,0.655172413793103
"787",8,2,59,0,0,0,1,1,2,2,0,1,1,1900,1529,0,0.661016949152542
"788",8,2,60,0,0,0,0,0,1,1,0,0,1,2000,1556,0,0.666666666666667
"789",8,2,61,1,1,1,1,1,4,3,1,1,0,1900,6600,1,0.655737704918033
"790",8,2,62,0,1,0,0,0,1,1,0,0,1,2000,1774,0,0.661290322580645
"791",8,2,63,0,1,0,0,1,1,1,0,0,1,2100,921,0,0.666666666666667
"792",8,2,64,0,1,0,0,1,1,1,0,0,1,2200,765,0,0.671875
"793",8,3,65,1,1,0,1,1,2,3,0,1,0,2100,2088,1,0.661538461538462
"794",8,3,66,0,1,1,0,0,1,1,0,0,1,2200,1765,0,0.666666666666667
"795",8,3,67,1,0,1,0,1,3,1,1,0,0,2100,1432,0,0.656716417910448
"796",8,3,68,0,0,1,1,1,2,2,0,1,1,2200,1559,0,0.661764705882353
"797",8,3,69,0,0,1,0,0,1,1,0,0,1,2300,1889,0,0.666666666666667
"798",8,3,70,1,0,1,1,0,4,4,1,1,1,2400,2007,1,0.671428571428571
"799",8,3,71,1,0,1,0,0,3,3,1,0,1,2500,3742,1,0.676056338028169
"800",8,3,72,0,0,0,1,1,2,2,0,1,1,2600,1842,0,0.680555555555556
"801",8,3,73,0,1,1,0,1,1,1,0,0,1,2700,6842,0,0.684931506849315
"802",8,3,74,1,1,0,1,1,2,2,0,1,1,2800,1897,0,0.689189189189189
"803",8,3,75,0,0,0,0,1,1,1,0,0,1,2900,1390,0,0.693333333333333
"804",8,3,76,0,0,0,0,1,1,1,0,0,1,3000,1143,0,0.697368421052632
"805",8,3,77,1,0,0,1,0,2,2,0,1,1,3100,10490,0,0.701298701298701
"806",8,3,78,0,1,1,1,1,2,2,0,1,1,3200,1815,0,0.705128205128205
"807",8,3,79,0,0,0,0,0,1,1,0,0,1,3300,2192,0,0.708860759493671
"808",8,3,80,1,1,1,0,1,3,3,1,0,1,3400,1593,1,0.7125
"809",8,3,81,0,0,0,1,0,2,2,0,1,1,3500,1451,0,0.716049382716049
"810",8,3,82,0,0,1,1,0,2,2,0,1,1,3600,1882,0,0.719512195121951
"811",8,3,83,1,0,0,0,0,1,1,0,0,1,3700,5783,0,0.72289156626506
"812",8,3,84,1,0,1,0,0,3,3,1,0,1,3800,1226,1,0.726190476190476
"813",8,3,85,1,1,1,0,1,3,3,1,0,1,3900,1290,1,0.729411764705882
"814",8,3,86,0,1,1,0,0,1,1,0,0,1,4000,1544,0,0.732558139534884
"815",8,3,87,1,0,0,0,1,1,1,0,0,1,4100,3459,0,0.735632183908046
"816",8,3,88,0,1,1,1,0,2,2,0,1,1,4200,2730,0,0.738636363636364
"817",8,3,89,0,1,1,1,0,2,2,0,1,1,4300,997,0,0.741573033707865
"818",8,3,90,1,1,0,0,0,1,1,0,0,1,4400,1446,0,0.744444444444444
"819",8,3,91,0,1,0,0,1,1,1,0,0,1,4500,974,0,0.747252747252747
"820",8,3,92,0,1,0,1,0,2,2,0,1,1,4600,1671,0,0.75
"821",8,3,93,1,1,1,0,0,3,3,1,0,1,4700,7703,1,0.752688172043011
"822",8,3,94,1,1,1,1,0,4,4,1,1,1,4800,2331,1,0.75531914893617
"823",8,3,95,0,1,0,1,1,2,2,0,1,1,4900,1478,0,0.757894736842105
"824",8,3,96,1,0,1,1,1,4,4,1,1,1,5000,2868,1,0.760416666666667
"825",8,0,97,0,0,1,1,1,2,4,0,1,0,5000,5819,1,0.752577319587629
"826",8,0,98,0,1,0,0,0,1,1,0,0,1,5000,19288,0,0.755102040816326
"827",8,0,99,1,1,1,1,0,4,4,1,1,1,5000,2067,1,0.757575757575758
"828",8,0,100,0,0,1,0,1,1,3,0,0,0,5000,5150,1,0.75
"829",8,0,101,1,0,1,0,1,3,3,1,0,1,5000,1462,1,0.752475247524752
"830",8,0,102,1,1,0,1,1,2,2,0,1,1,5000,1659,0,0.754901960784314
"831",8,0,103,1,1,1,1,1,4,4,1,1,1,5000,2262,1,0.757281553398058
"832",8,0,104,0,1,0,1,0,2,2,0,1,1,5000,1882,0,0.759615384615385
"833",9,1,1,1,1,1,0,1,3,2,1,0,0,-100,7362,0,0
"834",9,1,2,1,1,0,1,1,2,3,0,1,0,-200,4420,1,0
"835",9,1,3,0,1,0,1,1,2,2,0,1,1,-100,1980,0,0.333333333333333
"836",9,1,4,1,1,0,0,1,1,3,0,0,0,-200,2605,1,0.25
"837",9,1,5,1,0,1,1,0,4,2,1,1,0,-300,2542,0,0.2
"838",9,1,6,1,1,1,0,0,3,3,1,0,1,-200,5702,1,0.333333333333333
"839",9,1,7,1,1,1,0,1,3,3,1,0,1,-100,5188,1,0.428571428571429
"840",9,1,8,1,0,0,0,0,1,4,0,0,0,-200,7573,1,0.375
"841",9,1,9,1,0,0,0,1,1,3,0,0,0,-300,6887,1,0.333333333333333
"842",9,1,10,0,0,0,0,0,1,1,0,0,1,-200,4148,0,0.4
"843",9,1,11,1,1,0,0,1,1,3,0,0,0,-300,4903,1,0.363636363636364
"844",9,1,12,0,0,0,0,0,1,1,0,0,1,-200,3123,0,0.416666666666667
"845",9,1,13,0,0,1,1,0,2,4,0,1,0,-300,5167,1,0.384615384615385
"846",9,1,14,0,0,0,0,1,1,1,0,0,1,-200,3113,0,0.428571428571429
"847",9,1,15,0,1,0,1,1,2,2,0,1,1,-100,7269,0,0.466666666666667
"848",9,1,16,1,0,0,1,0,2,2,0,1,1,0,7059,0,0.5
"849",9,1,17,1,0,0,1,0,2,2,0,1,1,100,2554,0,0.529411764705882
"850",9,1,18,1,0,1,0,1,3,1,1,0,0,0,4604,0,0.5
"851",9,1,19,0,1,0,0,1,1,1,0,0,1,100,5452,0,0.526315789473684
"852",9,1,20,1,1,1,1,1,4,2,1,1,0,0,3308,0,0.5
"853",9,1,21,0,1,1,1,1,2,2,0,1,1,100,1926,0,0.523809523809524
"854",9,1,22,0,0,0,1,0,2,2,0,1,1,200,5524,0,0.545454545454545
"855",9,1,23,0,1,0,0,0,1,3,0,0,0,100,8021,1,0.521739130434783
"856",9,1,24,0,0,1,1,1,2,2,0,1,1,200,5381,0,0.541666666666667
"857",9,1,25,0,1,0,0,1,1,1,0,0,1,300,3494,0,0.56
"858",9,1,26,1,1,0,0,0,1,3,0,0,0,200,3381,1,0.538461538461538
"859",9,1,27,0,1,1,0,1,1,1,0,0,1,300,4189,0,0.555555555555556
"860",9,1,28,0,0,1,0,0,1,1,0,0,1,400,3743,0,0.571428571428571
"861",9,1,29,1,0,0,0,1,1,3,0,0,0,300,5922,1,0.551724137931034
"862",9,1,30,0,0,1,1,0,2,2,0,1,1,400,4670,0,0.566666666666667
"863",9,1,31,0,1,1,0,1,1,1,0,0,1,500,5420,0,0.580645161290323
"864",9,1,32,0,0,1,1,0,2,2,0,1,1,600,2772,0,0.59375
"865",9,2,33,0,0,0,1,1,2,2,0,1,1,700,2999,0,0.606060606060606
"866",9,2,34,0,1,0,0,1,1,1,0,0,1,800,5359,0,0.617647058823529
"867",9,2,35,1,0,0,1,1,2,4,0,1,0,700,3978,1,0.6
"868",9,2,36,1,1,1,0,1,3,3,1,0,1,800,3524,1,0.611111111111111
"869",9,2,37,0,1,0,0,0,1,1,0,0,1,900,3288,0,0.621621621621622
"870",9,2,38,0,1,1,0,0,1,1,0,0,1,1000,3814,0,0.631578947368421
"871",9,2,39,0,0,0,0,0,1,1,0,0,1,1100,3670,0,0.641025641025641
"872",9,2,40,1,1,0,1,1,2,2,0,1,1,1200,3838,0,0.65
"873",9,2,41,1,1,1,1,0,4,4,1,1,1,1300,3117,1,0.658536585365854
"874",9,2,42,0,1,0,1,0,2,2,0,1,1,1400,2327,0,0.666666666666667
"875",9,2,43,1,0,0,1,1,2,2,0,1,1,1500,3229,0,0.674418604651163
"876",9,2,44,1,1,0,1,0,2,2,0,1,1,1600,1427,0,0.681818181818182
"877",9,2,45,1,0,1,1,0,4,4,1,1,1,1700,1884,1,0.688888888888889
"878",9,2,46,0,0,0,1,0,2,2,0,1,1,1800,3626,0,0.695652173913043
"879",9,2,47,0,0,0,0,1,1,1,0,0,1,1900,2416,0,0.702127659574468
"880",9,2,48,1,1,1,1,0,4,4,1,1,1,2000,2753,1,0.708333333333333
"881",9,2,49,1,1,0,1,1,2,2,0,1,1,2100,2284,0,0.714285714285714
"882",9,2,50,0,0,0,1,1,2,2,0,1,1,2200,2985,0,0.72
"883",9,2,51,1,0,1,0,0,3,3,1,0,1,2300,2618,1,0.725490196078431
"884",9,2,52,0,0,1,1,1,2,4,0,1,0,2200,3427,1,0.711538461538462
"885",9,2,53,0,0,0,1,0,2,2,0,1,1,2300,4124,0,0.716981132075472
"886",9,2,54,0,1,1,0,0,1,3,0,0,0,2200,3728,1,0.703703703703704
"887",9,2,55,0,0,0,0,1,1,1,0,0,1,2300,4315,0,0.709090909090909
"888",9,2,56,0,1,1,1,0,2,4,0,1,0,2200,7984,1,0.696428571428571
"889",9,2,57,1,0,1,0,1,3,3,1,0,1,2300,3561,1,0.701754385964912
"890",9,2,58,0,0,0,1,1,2,2,0,1,1,2400,5061,0,0.706896551724138
"891",9,2,59,0,1,1,1,0,2,2,0,1,1,2500,6538,0,0.711864406779661
"892",9,2,60,1,1,1,1,0,4,4,1,1,1,2600,2669,1,0.716666666666667
"893",9,2,61,1,0,1,1,0,4,4,1,1,1,2700,2403,1,0.721311475409836
"894",9,2,62,0,1,0,1,1,2,2,0,1,1,2800,2314,0,0.725806451612903
"895",9,2,63,1,1,1,0,0,3,3,1,0,1,2900,3414,1,0.73015873015873
"896",9,2,64,1,0,0,1,1,2,4,0,1,0,2800,5198,1,0.71875
"897",9,3,65,1,0,0,0,0,1,3,0,0,0,2700,4336,1,0.707692307692308
"898",9,3,66,1,0,1,1,1,4,4,1,1,1,2800,2020,1,0.712121212121212
"899",9,3,67,1,1,1,0,0,3,3,1,0,1,2900,2586,1,0.716417910447761
"900",9,3,68,1,0,1,1,1,4,4,1,1,1,3000,2397,1,0.720588235294118
"901",9,3,69,0,0,1,0,1,1,1,0,0,1,3100,3653,0,0.72463768115942
"902",9,3,70,1,0,1,0,0,3,3,1,0,1,3200,3532,1,0.728571428571429
"903",9,3,71,1,0,0,0,1,1,1,0,0,1,3300,3649,0,0.732394366197183
"904",9,3,72,1,0,0,1,0,2,2,0,1,1,3400,4687,0,0.736111111111111
"905",9,3,73,1,1,0,0,0,1,1,0,0,1,3500,2637,0,0.73972602739726
"906",9,3,74,1,1,0,1,0,2,2,0,1,1,3600,2932,0,0.743243243243243
"907",9,3,75,1,1,0,1,0,2,2,0,1,1,3700,2048,0,0.746666666666667
"908",9,3,76,0,0,1,0,0,1,1,0,0,1,3800,2870,0,0.75
"909",9,3,77,1,0,0,0,0,1,1,0,0,1,3900,3029,0,0.753246753246753
"910",9,3,78,0,1,1,1,1,2,2,0,1,1,4000,3893,0,0.756410256410256
"911",9,3,79,0,0,1,1,1,2,2,0,1,1,4100,2434,0,0.759493670886076
"912",9,3,80,1,1,1,1,1,4,4,1,1,1,4200,2354,1,0.7625
"913",9,3,81,0,1,1,1,1,2,2,0,1,1,4300,3419,0,0.765432098765432
"914",9,3,82,0,1,1,0,0,1,1,0,0,1,4400,2341,0,0.768292682926829
"915",9,3,83,0,0,1,0,0,1,1,0,0,1,4500,4398,0,0.771084337349398
"916",9,3,84,1,1,0,0,0,1,1,0,0,1,4600,3544,0,0.773809523809524
"917",9,3,85,0,0,1,0,1,1,1,0,0,1,4700,2324,0,0.776470588235294
"918",9,3,86,0,1,1,0,1,1,1,0,0,1,4800,1328,0,0.779069767441861
"919",9,3,87,0,1,0,1,0,2,2,0,1,1,4900,2100,0,0.781609195402299
"920",9,3,88,1,1,1,1,1,4,4,1,1,1,5000,3153,1,0.784090909090909
"921",9,3,89,0,1,1,1,0,2,2,0,1,1,5100,3034,0,0.786516853932584
"922",9,3,90,0,0,1,0,1,1,1,0,0,1,5200,4107,0,0.788888888888889
"923",9,3,91,1,0,1,1,1,4,4,1,1,1,5300,1966,1,0.791208791208791
"924",9,3,92,1,0,1,0,0,3,3,1,0,1,5400,3496,1,0.793478260869565
"925",9,3,93,1,1,0,0,1,1,1,0,0,1,5500,2295,0,0.795698924731183
"926",9,3,94,1,0,1,0,1,3,3,1,0,1,5600,2955,1,0.797872340425532
"927",9,3,95,0,1,0,1,0,2,2,0,1,1,5700,1463,0,0.8
"928",9,3,96,0,1,0,0,0,1,1,0,0,1,5800,2565,0,0.802083333333333
"929",9,0,97,0,1,0,0,0,1,2,0,0,0,5800,13102,0,0.793814432989691
"930",9,0,98,0,1,0,1,0,2,3,0,1,0,5800,6447,1,0.785714285714286
"931",9,0,99,1,1,1,1,0,4,4,1,1,1,5800,8140,1,0.787878787878788
"932",9,0,100,1,1,1,1,1,4,4,1,1,1,5800,2708,1,0.79
"933",9,0,101,1,0,1,0,1,3,3,1,0,1,5800,5854,1,0.792079207920792
"934",9,0,102,1,1,0,1,1,2,2,0,1,1,5800,5163,0,0.794117647058823
"935",9,0,103,0,0,1,0,1,1,1,0,0,1,5800,6538,0,0.796116504854369
"936",9,0,104,0,0,1,1,1,2,2,0,1,1,5800,4491,0,0.798076923076923
"937",10,1,1,1,0,1,0,0,3,3,1,0,1,100,7055,1,1
"938",10,1,2,0,1,0,0,1,1,1,0,0,1,200,4605,0,1
"939",10,1,3,1,1,1,1,0,4,4,1,1,1,300,3191,1,1
"940",10,1,4,0,0,0,0,1,1,1,0,0,1,400,3353,0,1
"941",10,1,5,0,0,1,0,0,1,2,0,0,0,300,7086,0,0.8
"942",10,1,6,0,1,0,1,0,2,3,0,1,0,200,6100,1,0.666666666666667
"943",10,1,7,1,1,1,0,1,3,4,1,0,0,100,1369,1,0.571428571428571
"944",10,1,8,1,0,0,0,1,1,3,0,0,0,0,6496,1,0.5
"945",10,1,9,1,0,1,1,1,4,4,1,1,1,100,1761,1,0.555555555555556
"946",10,1,10,0,0,1,0,1,1,1,0,0,1,200,1280,0,0.6
"947",10,1,11,1,1,1,0,0,3,3,1,0,1,300,3528,1,0.636363636363636
"948",10,1,12,1,0,0,1,0,2,4,0,1,0,200,1988,1,0.583333333333333
"949",10,1,13,0,1,0,0,0,1,1,0,0,1,300,2824,0,0.615384615384615
"950",10,1,14,0,1,0,1,1,2,2,0,1,1,400,2650,0,0.642857142857143
"951",10,1,15,1,1,1,0,1,3,3,1,0,1,500,2003,1,0.666666666666667
"952",10,1,16,1,0,0,1,1,2,4,0,1,0,400,1387,1,0.625
"953",10,1,17,0,0,1,1,1,2,2,0,1,1,500,3461,0,0.647058823529412
"954",10,1,18,0,0,1,1,0,2,2,0,1,1,600,2619,0,0.666666666666667
"955",10,1,19,1,0,0,0,1,1,3,0,0,0,500,1627,1,0.631578947368421
"956",10,1,20,0,1,0,0,1,1,1,0,0,1,600,1199,0,0.65
"957",10,1,21,1,0,0,0,0,1,3,0,0,0,500,4322,1,0.619047619047619
"958",10,1,22,0,1,1,1,1,2,2,0,1,1,600,1953,0,0.636363636363636
"959",10,1,23,1,1,0,1,1,2,4,0,1,0,500,3293,1,0.608695652173913
"960",10,1,24,0,1,0,1,0,2,2,0,1,1,600,1547,0,0.625
"961",10,1,25,0,0,0,1,1,2,2,0,1,1,700,2267,0,0.64
"962",10,1,26,0,0,0,0,0,1,1,0,0,1,800,944,0,0.653846153846154
"963",10,1,27,1,1,0,1,0,2,4,0,1,0,700,3182,1,0.62962962962963
"964",10,1,28,1,1,1,1,1,4,4,1,1,1,800,1521,1,0.642857142857143
"965",10,1,29,0,0,1,0,1,1,3,0,0,0,700,1607,1,0.620689655172414
"966",10,1,30,1,1,1,1,0,4,4,1,1,1,800,5995,1,0.633333333333333
"967",10,1,31,0,1,1,1,0,2,2,0,1,1,900,1623,0,0.645161290322581
"968",10,1,32,0,0,0,1,0,2,2,0,1,1,1000,1238,0,0.65625
"969",10,2,33,0,0,1,1,1,2,2,0,1,1,1100,780,0,0.666666666666667
"970",10,2,34,1,1,0,0,1,1,3,0,0,0,1000,2136,1,0.647058823529412
"971",10,2,35,0,0,1,1,0,2,2,0,1,1,1100,2147,0,0.657142857142857
"972",10,2,36,0,0,0,1,1,2,2,0,1,1,1200,1241,0,0.666666666666667
"973",10,2,37,1,1,0,0,1,1,3,0,0,0,1100,5831,1,0.648648648648649
"974",10,2,38,0,1,0,1,0,2,2,0,1,1,1200,1809,0,0.657894736842105
"975",10,2,39,0,1,0,0,0,1,1,0,0,1,1300,1838,0,0.666666666666667
"976",10,2,40,0,1,1,0,1,1,1,0,0,1,1400,3018,0,0.675
"977",10,2,41,1,1,1,0,1,3,3,1,0,1,1500,3175,1,0.682926829268293
"978",10,2,42,1,0,0,1,0,2,4,0,1,0,1400,3410,1,0.666666666666667
"979",10,2,43,0,0,1,0,0,1,1,0,0,1,1500,2126,0,0.674418604651163
"980",10,2,44,0,1,0,0,1,1,1,0,0,1,1600,1354,0,0.681818181818182
"981",10,2,45,0,1,1,1,0,2,2,0,1,1,1700,1440,0,0.688888888888889
"982",10,2,46,1,0,0,0,0,1,1,0,0,1,1800,3258,0,0.695652173913043
"983",10,2,47,1,1,1,0,0,3,1,1,0,0,1700,2489,0,0.680851063829787
"984",10,2,48,1,1,0,0,0,1,3,0,0,0,1600,1704,1,0.666666666666667
"985",10,2,49,1,1,1,1,0,4,4,1,1,1,1700,2741,1,0.673469387755102
"986",10,2,50,1,0,1,0,1,3,3,1,0,1,1800,2859,1,0.68
"987",10,2,51,1,0,1,0,1,3,3,1,0,1,1900,1606,1,0.686274509803922
"988",10,2,52,0,1,1,1,0,2,2,0,1,1,2000,1239,0,0.692307692307692
"989",10,2,53,0,0,0,1,0,2,2,0,1,1,2100,2223,0,0.69811320754717
"990",10,2,54,1,1,1,1,1,4,4,1,1,1,2200,3710,1,0.703703703703704
"991",10,2,55,1,1,0,0,1,1,3,0,0,0,2100,4469,1,0.690909090909091
"992",10,2,56,1,0,1,0,0,3,3,1,0,1,2200,1680,1,0.696428571428571
"993",10,2,57,0,1,1,0,1,1,1,0,0,1,2300,2676,0,0.701754385964912
"994",10,2,58,1,0,1,1,1,4,4,1,1,1,2400,3071,1,0.706896551724138
"995",10,2,59,1,0,0,1,0,2,4,0,1,0,2300,1747,1,0.694915254237288
"996",10,2,60,1,1,0,1,1,2,4,0,1,0,2200,3393,1,0.683333333333333
"997",10,2,61,1,1,0,1,0,2,4,0,1,0,2100,1002,1,0.672131147540984
"998",10,2,62,0,1,1,1,1,2,2,0,1,1,2200,1185,0,0.67741935483871
"999",10,2,63,0,0,0,0,0,1,1,0,0,1,2300,1406,0,0.682539682539683
"1000",10,2,64,0,0,1,1,1,2,2,0,1,1,2400,2118,0,0.6875
"1001",10,3,65,0,1,0,0,0,1,1,0,0,1,2500,2458,0,0.692307692307692
"1002",10,3,66,0,0,0,0,1,1,1,0,0,1,2600,2430,0,0.696969696969697
"1003",10,3,67,0,1,1,0,0,1,3,0,0,0,2500,3386,1,0.686567164179104
"1004",10,3,68,0,0,1,0,0,1,1,0,0,1,2600,1647,0,0.691176470588235
"1005",10,3,69,1,0,1,1,0,4,2,1,1,0,2500,4438,0,0.681159420289855
"1006",10,3,70,0,1,0,1,1,2,2,0,1,1,2600,1898,0,0.685714285714286
"1007",10,3,71,0,0,1,1,0,2,2,0,1,1,2700,1813,0,0.690140845070423
"1008",10,3,72,0,0,0,0,0,1,1,0,0,1,2800,1111,0,0.694444444444444
"1009",10,3,73,1,1,1,1,1,4,2,1,1,0,2700,5933,0,0.684931506849315
"1010",10,3,74,0,1,1,0,0,1,1,0,0,1,2800,2239,0,0.689189189189189
"1011",10,3,75,0,0,0,1,0,2,2,0,1,1,2900,3108,0,0.693333333333333
"1012",10,3,76,0,0,0,0,1,1,1,0,0,1,3000,2207,0,0.697368421052632
"1013",10,3,77,0,1,0,1,1,2,2,0,1,1,3100,1964,0,0.701298701298701
"1014",10,3,78,1,0,1,1,0,4,4,1,1,1,3200,1637,1,0.705128205128205
"1015",10,3,79,1,1,0,1,1,2,4,0,1,0,3100,1474,1,0.69620253164557
"1016",10,3,80,1,1,1,0,0,3,3,1,0,1,3200,1450,1,0.7
"1017",10,3,81,1,0,0,0,1,1,3,0,0,0,3100,2568,1,0.691358024691358
"1018",10,3,82,1,1,0,0,0,1,3,0,0,0,3000,1732,1,0.682926829268293
"1019",10,3,83,0,1,1,1,1,2,2,0,1,1,3100,1225,0,0.686746987951807
"1020",10,3,84,1,0,1,0,1,3,3,1,0,1,3200,3027,1,0.69047619047619
"1021",10,3,85,0,1,1,0,1,1,1,0,0,1,3300,4482,0,0.694117647058824
"1022",10,3,86,1,0,1,1,0,4,4,1,1,1,3400,3024,1,0.697674418604651
"1023",10,3,87,1,0,1,1,1,4,4,1,1,1,3500,1856,1,0.701149425287356
"1024",10,3,88,1,1,0,1,0,2,4,0,1,0,3400,822,1,0.693181818181818
"1025",10,3,89,1,0,0,1,1,2,4,0,1,0,3300,1711,1,0.685393258426966
"1026",10,3,90,1,0,0,1,1,2,4,0,1,0,3200,2578,1,0.677777777777778
"1027",10,3,91,1,0,0,0,0,1,3,0,0,0,3100,1474,1,0.67032967032967
"1028",10,3,92,0,0,1,0,1,1,1,0,0,1,3200,1533,0,0.673913043478261
"1029",10,3,93,1,1,0,0,0,1,3,0,0,0,3100,1155,1,0.666666666666667
"1030",10,3,94,0,1,1,0,0,1,1,0,0,1,3200,1248,0,0.670212765957447
"1031",10,3,95,0,0,0,1,1,2,2,0,1,1,3300,2879,0,0.673684210526316
"1032",10,3,96,1,0,1,0,0,3,3,1,0,1,3400,1200,1,0.677083333333333
"1033",10,0,97,1,1,1,1,1,4,3,1,1,0,3400,4952,1,0.670103092783505
"1034",10,0,98,0,1,0,0,0,1,1,0,0,1,3400,1681,0,0.673469387755102
"1035",10,0,99,0,0,1,1,1,2,1,0,1,0,3400,3868,0,0.666666666666667
"1036",10,0,100,1,1,1,1,0,4,3,1,1,0,3400,1723,1,0.66
"1037",10,0,101,0,1,0,1,0,2,1,0,1,0,3400,1166,0,0.653465346534653
"1038",10,0,102,1,1,0,1,1,2,1,0,1,0,3400,930,0,0.647058823529412
"1039",10,0,103,0,0,1,0,1,1,1,0,0,1,3400,1721,0,0.650485436893204
"1040",10,0,104,1,0,1,0,1,3,4,1,0,0,3400,2618,1,0.644230769230769
"1041",11,1,1,0,1,1,0,0,1,2,0,0,0,-100,13819,0,0
"1042",11,1,2,0,1,1,1,1,2,3,0,1,0,-200,5314,1,0
"1043",11,1,3,1,0,0,0,0,1,4,0,0,0,-300,4096,1,0
"1044",11,1,4,0,0,1,1,1,2,4,0,1,0,-400,4419,1,0
"1045",11,1,5,1,1,0,1,0,2,2,0,1,1,-300,4060,0,0.2
"1046",11,1,6,0,0,1,0,1,1,1,0,0,1,-200,5786,0,0.333333333333333
"1047",11,1,7,0,0,1,1,1,2,2,0,1,1,-100,3156,0,0.428571428571429
"1048",11,1,8,1,0,0,0,1,1,4,0,0,0,-200,3047,1,0.375
"1049",11,1,9,0,1,0,0,0,1,2,0,0,0,-300,23285,0,0.333333333333333
"1050",11,1,10,1,0,1,1,1,4,4,1,1,1,-200,10587,1,0.4
"1051",11,1,11,1,0,1,1,0,4,3,1,1,0,-300,12996,1,0.363636363636364
"1052",11,1,12,0,0,0,1,0,2,2,0,1,1,-200,13724,0,0.416666666666667
"1053",11,1,13,0,1,1,0,1,1,1,0,0,1,-100,9568,0,0.461538461538462
"1054",11,1,14,1,1,0,0,1,1,1,0,0,1,0,5266,0,0.5
"1055",11,1,15,0,0,0,0,1,1,1,0,0,1,100,2121,0,0.533333333333333
"1056",11,1,16,0,0,1,1,1,2,4,0,1,0,0,4740,1,0.5
"1057",11,1,17,1,0,1,1,1,4,4,1,1,1,100,4816,1,0.529411764705882
"1058",11,1,18,1,1,1,1,1,4,4,1,1,1,200,3471,1,0.555555555555556
"1059",11,1,19,1,1,1,0,0,3,3,1,0,1,300,14684,1,0.578947368421053
"1060",11,1,20,0,1,1,0,0,1,3,0,0,0,200,9659,1,0.55
"1061",11,1,21,0,0,1,1,0,2,4,0,1,0,100,4193,1,0.523809523809524
"1062",11,1,22,1,0,0,1,0,2,3,0,1,0,0,5386,1,0.5
"1063",11,1,23,0,1,0,0,1,1,2,0,0,0,-100,2050,0,0.478260869565217
"1064",11,1,24,0,1,0,0,1,1,1,0,0,1,0,1914,0,0.5
"1065",11,1,25,1,0,1,1,0,4,3,1,1,0,-100,6135,1,0.48
"1066",11,1,26,1,0,1,1,1,4,4,1,1,1,0,4064,1,0.5
"1067",11,1,27,1,1,0,1,1,2,1,0,1,0,-100,13526,0,0.481481481481481
"1068",11,1,28,1,0,1,0,0,3,3,1,0,1,0,5715,1,0.5
"1069",11,1,29,0,0,0,0,0,1,1,0,0,1,100,4166,0,0.517241379310345
"1070",11,1,30,1,1,1,1,0,4,4,1,1,1,200,4769,1,0.533333333333333
"1071",11,1,31,1,1,1,0,1,3,1,1,0,0,100,4195,0,0.516129032258065
"1072",11,1,32,1,1,0,0,0,1,4,0,0,0,0,7181,1,0.5
"1073",11,2,33,0,1,1,1,0,2,4,0,1,0,-100,3229,1,0.484848484848485
"1074",11,2,34,1,1,0,0,0,1,1,0,0,1,0,9165,0,0.5
"1075",11,2,35,1,1,1,1,0,4,3,1,1,0,-100,7176,1,0.485714285714286
"1076",11,2,36,1,0,0,0,1,1,1,0,0,1,0,3073,0,0.5
"1077",11,2,37,1,0,1,0,0,3,3,1,0,1,100,5222,1,0.513513513513513
"1078",11,2,38,0,0,0,1,0,2,3,0,1,0,0,3414,1,0.5
"1079",11,2,39,0,1,1,1,1,2,4,0,1,0,-100,3767,1,0.487179487179487
"1080",11,2,40,1,0,1,0,1,3,1,1,0,0,-200,4592,0,0.475
"1081",11,2,41,0,1,1,0,0,1,3,0,0,0,-300,3402,1,0.463414634146341
"1082",11,2,42,0,0,1,1,0,2,1,0,1,0,-400,843,0,0.452380952380952
"1083",11,2,43,1,0,0,0,1,1,4,0,0,0,-500,3121,1,0.441860465116279
"1084",11,2,44,0,0,0,0,1,1,1,0,0,1,-400,2197,0,0.454545454545455
"1085",11,2,45,1,1,0,0,0,1,1,0,0,1,-300,7670,0,0.466666666666667
"1086",11,2,46,1,0,0,1,1,2,3,0,1,0,-400,6462,1,0.456521739130435
"1087",11,2,47,0,1,1,0,1,1,1,0,0,1,-300,5547,0,0.468085106382979
"1088",11,2,48,1,1,1,0,0,3,3,1,0,1,-200,5575,1,0.479166666666667
"1089",11,2,49,1,0,1,1,0,4,4,1,1,1,-100,6322,1,0.489795918367347
"1090",11,2,50,0,0,0,1,1,2,2,0,1,1,0,6357,0,0.5
"1091",11,2,51,0,1,0,1,0,2,2,0,1,1,100,3544,0,0.509803921568627
"1092",11,2,52,0,1,0,0,0,1,1,0,0,1,200,5867,0,0.519230769230769
"1093",11,2,53,1,1,1,1,1,4,4,1,1,1,300,17370,1,0.528301886792453
"1094",11,2,54,1,1,0,1,1,2,2,0,1,1,400,7964,0,0.537037037037037
"1095",11,2,55,1,1,1,1,0,4,4,1,1,1,500,12390,1,0.545454545454545
"1096",11,2,56,1,1,0,1,0,2,2,0,1,1,600,2966,0,0.553571428571429
"1097",11,2,57,0,0,1,1,0,2,4,0,1,0,500,3752,1,0.543859649122807
"1098",11,2,58,1,0,1,0,1,3,1,1,0,0,400,6403,0,0.53448275862069
"1099",11,2,59,1,0,0,0,0,1,1,0,0,1,500,8685,0,0.542372881355932
"1100",11,2,60,0,0,1,0,0,1,3,0,0,0,400,6354,1,0.533333333333333
"1101",11,2,61,0,0,0,1,0,2,2,0,1,1,500,3893,0,0.540983606557377
"1102",11,2,62,0,0,0,0,1,1,1,0,0,1,600,1465,0,0.548387096774194
"1103",11,2,63,0,0,0,0,0,1,1,0,0,1,700,1960,0,0.555555555555556
"1104",11,2,64,0,0,1,0,1,1,3,0,0,0,600,2500,1,0.546875
"1105",11,3,65,1,1,1,1,1,4,4,1,1,1,700,6935,1,0.553846153846154
"1106",11,3,66,1,0,0,1,1,2,2,0,1,1,800,2715,0,0.560606060606061
"1107",11,3,67,1,1,1,0,1,3,1,1,0,0,700,4871,0,0.552238805970149
"1108",11,3,68,1,1,0,0,1,1,1,0,0,1,800,1205,0,0.558823529411765
"1109",11,3,69,1,1,1,0,0,3,2,1,0,0,700,3486,0,0.550724637681159
"1110",11,3,70,1,0,0,1,1,2,2,0,1,1,800,6027,0,0.557142857142857
"1111",11,3,71,0,0,0,0,0,1,1,0,0,1,900,5084,0,0.563380281690141
"1112",11,3,72,0,0,0,1,1,2,2,0,1,1,1000,7808,0,0.569444444444444
"1113",11,3,73,0,1,0,1,0,2,2,0,1,1,1100,2523,0,0.575342465753425
"1114",11,3,74,0,0,1,0,0,1,1,0,0,1,1200,1678,0,0.581081081081081
"1115",11,3,75,1,1,0,1,0,2,2,0,1,1,1300,1659,0,0.586666666666667
"1116",11,3,76,0,1,0,1,0,2,2,0,1,1,1400,2572,0,0.592105263157895
"1117",11,3,77,0,1,0,0,1,1,1,0,0,1,1500,1333,0,0.597402597402597
"1118",11,3,78,1,1,0,1,1,2,2,0,1,1,1600,7752,0,0.602564102564103
"1119",11,3,79,0,1,0,1,1,2,2,0,1,1,1700,1427,0,0.607594936708861
"1120",11,3,80,1,0,0,0,0,1,1,0,0,1,1800,1267,0,0.6125
"1121",11,3,81,0,1,1,1,1,2,4,0,1,0,1700,4218,1,0.604938271604938
"1122",11,3,82,0,1,0,1,1,2,2,0,1,1,1800,1187,0,0.609756097560976
"1123",11,3,83,0,1,0,1,1,2,2,0,1,1,1900,1587,0,0.614457831325301
"1124",11,3,84,1,0,1,0,0,3,3,1,0,1,2000,6566,1,0.619047619047619
"1125",11,3,85,0,1,0,0,0,1,1,0,0,1,2100,1288,0,0.623529411764706
"1126",11,3,86,0,0,1,0,1,1,1,0,0,1,2200,3925,0,0.627906976744186
"1127",11,3,87,0,0,0,1,1,2,2,0,1,1,2300,2123,0,0.632183908045977
"1128",11,3,88,1,0,1,0,1,3,3,1,0,1,2400,2213,1,0.636363636363636
"1129",11,3,89,1,1,0,0,1,1,1,0,0,1,2500,5894,0,0.640449438202247
"1130",11,3,90,1,0,0,1,0,2,2,0,1,1,2600,1915,0,0.644444444444444
"1131",11,3,91,0,1,1,1,0,2,4,0,1,0,2500,6104,1,0.637362637362637
"1132",11,3,92,0,1,1,1,0,2,3,0,1,0,2400,1933,1,0.630434782608696
"1133",11,3,93,0,0,1,0,0,1,1,0,0,1,2500,1144,0,0.634408602150538
"1134",11,3,94,1,1,1,0,1,3,1,1,0,0,2400,4858,0,0.627659574468085
"1135",11,3,95,1,0,0,1,0,2,2,0,1,1,2500,1962,0,0.631578947368421
"1136",11,3,96,0,1,1,0,1,1,1,0,0,1,2600,3148,0,0.635416666666667
"1137",11,0,97,1,1,1,1,1,4,4,1,1,1,2600,4843,1,0.639175257731959
"1138",11,0,98,1,1,1,1,0,4,4,1,1,1,2600,2478,1,0.642857142857143
"1139",11,0,99,0,0,1,0,1,1,1,0,0,1,2600,2257,0,0.646464646464647
"1140",11,0,100,1,1,0,1,1,2,4,0,1,0,2600,2886,1,0.64
"1141",11,0,101,1,0,1,0,1,3,2,1,0,0,2600,2032,0,0.633663366336634
"1142",11,0,102,0,0,1,1,1,2,2,0,1,1,2600,1581,0,0.637254901960784
"1143",11,0,103,0,1,0,1,0,2,2,0,1,1,2600,2076,0,0.640776699029126
"1144",11,0,104,0,1,0,0,0,1,1,0,0,1,2600,2391,0,0.644230769230769
"1145",12,1,1,1,0,0,1,1,2,3,0,1,0,-100,10356,1,0
"1146",12,1,2,0,0,0,1,0,2,1,0,1,0,-200,2752,0,0
"1147",12,1,3,0,0,1,0,0,1,2,0,0,0,-300,3898,0,0
"1148",12,1,4,0,1,1,1,1,2,4,0,1,0,-400,5752,1,0
"1149",12,1,5,1,1,0,0,1,1,1,0,0,1,-300,1753,0,0.2
"1150",12,1,6,0,1,1,1,1,2,2,0,1,1,-200,5469,0,0.333333333333333
"1151",12,1,7,1,1,1,0,0,3,3,1,0,1,-100,4715,1,0.428571428571429
"1152",12,1,8,0,1,0,1,1,2,1,0,1,0,-200,1936,0,0.375
"1153",12,1,9,1,0,0,0,0,1,3,0,0,0,-300,3293,1,0.333333333333333
"1154",12,1,10,1,0,0,0,0,1,1,0,0,1,-200,1984,0,0.4
"1155",12,1,11,1,0,1,1,1,4,2,1,1,0,-300,2794,0,0.363636363636364
"1156",12,1,12,0,0,0,1,1,2,4,0,1,0,-400,2153,1,0.333333333333333
"1157",12,1,13,0,1,1,1,0,2,4,0,1,0,-500,3212,1,0.307692307692308
"1158",12,1,14,1,0,0,1,1,2,2,0,1,1,-400,5453,0,0.357142857142857
"1159",12,1,15,0,0,0,0,0,1,1,0,0,1,-300,1523,0,0.4
"1160",12,1,16,1,1,1,0,0,3,1,1,0,0,-400,911,0,0.375
"1161",12,1,17,1,1,1,1,1,4,2,1,1,0,-500,1084,0,0.352941176470588
"1162",12,1,18,0,0,0,1,0,2,3,0,1,0,-600,2560,1,0.333333333333333
"1163",12,1,19,0,0,1,1,1,2,3,0,1,0,-700,2322,1,0.315789473684211
"1164",12,1,20,0,1,0,0,1,1,1,0,0,1,-600,1758,0,0.35
"1165",12,1,21,1,0,0,0,1,1,1,0,0,1,-500,1138,0,0.380952380952381
"1166",12,1,22,0,1,1,0,0,1,1,0,0,1,-400,1980,0,0.409090909090909
"1167",12,1,23,1,1,1,1,1,4,2,1,1,0,-500,1964,0,0.391304347826087
"1168",12,1,24,1,1,0,0,1,1,1,0,0,1,-400,1677,0,0.416666666666667
"1169",12,1,25,0,1,0,1,1,2,3,0,1,0,-500,2788,1,0.4
"1170",12,1,26,1,1,0,1,0,2,3,0,1,0,-600,5045,1,0.384615384615385
"1171",12,1,27,1,0,0,0,1,1,1,0,0,1,-500,1174,0,0.407407407407407
"1172",12,1,28,0,0,1,1,1,2,3,0,1,0,-600,7406,1,0.392857142857143
"1173",12,1,29,1,1,0,1,0,2,2,0,1,1,-500,1647,0,0.413793103448276
"1174",12,1,30,0,1,1,1,0,2,2,0,1,1,-400,1238,0,0.433333333333333
"1175",12,1,31,1,1,0,1,0,2,4,0,1,0,-500,4885,1,0.419354838709677
"1176",12,1,32,0,0,0,0,1,1,1,0,0,1,-400,899,0,0.4375
"1177",12,2,33,0,0,1,0,1,1,1,0,0,1,-300,961,0,0.454545454545455
"1178",12,2,34,0,0,1,1,0,2,2,0,1,1,-200,2771,0,0.470588235294118
"1179",12,2,35,0,1,1,0,1,1,1,0,0,1,-100,805,0,0.485714285714286
"1180",12,2,36,1,1,1,1,0,4,2,1,1,0,-200,902,0,0.472222222222222
"1181",12,2,37,0,0,0,0,1,1,1,0,0,1,-100,705,0,0.486486486486487
"1182",12,2,38,1,1,0,1,1,2,4,0,1,0,-200,2678,1,0.473684210526316
"1183",12,2,39,1,1,1,1,0,4,2,1,1,0,-300,1476,0,0.461538461538462
"1184",12,2,40,1,1,0,1,1,2,2,0,1,1,-200,2112,0,0.475
"1185",12,2,41,1,1,0,1,1,2,2,0,1,1,-100,956,0,0.48780487804878
"1186",12,2,42,1,1,1,0,1,3,1,1,0,0,-200,951,0,0.476190476190476
"1187",12,2,43,1,1,1,0,0,3,1,1,0,0,-300,793,0,0.465116279069767
"1188",12,2,44,1,1,1,1,1,4,2,1,1,0,-400,842,0,0.454545454545455
"1189",12,2,45,0,1,0,1,0,2,2,0,1,1,-300,1080,0,0.466666666666667
"1190",12,2,46,0,0,0,1,1,2,2,0,1,1,-200,4028,0,0.478260869565217
"1191",12,2,47,0,0,0,0,1,1,1,0,0,1,-100,805,0,0.48936170212766
"1192",12,2,48,1,0,0,1,1,2,2,0,1,1,0,1678,0,0.5
"1193",12,2,49,0,1,1,0,0,1,1,0,0,1,100,2667,0,0.510204081632653
"1194",12,2,50,0,0,0,0,0,1,1,0,0,1,200,754,0,0.52
"1195",12,2,51,0,1,0,0,0,1,1,0,0,1,300,1333,0,0.529411764705882
"1196",12,2,52,1,0,1,1,1,4,2,1,1,0,200,1546,0,0.519230769230769
"1197",12,2,53,0,0,0,0,0,1,1,0,0,1,300,906,0,0.528301886792453
"1198",12,2,54,0,0,1,1,0,2,2,0,1,1,400,3008,0,0.537037037037037
"1199",12,2,55,0,1,0,1,0,2,2,0,1,1,500,1496,0,0.545454545454545
"1200",12,2,56,0,1,0,0,0,1,1,0,0,1,600,1005,0,0.553571428571429
"1201",12,2,57,0,0,1,1,0,2,2,0,1,1,700,2038,0,0.56140350877193
"1202",12,2,58,0,1,0,1,1,2,2,0,1,1,800,2453,0,0.568965517241379
"1203",12,2,59,0,1,1,1,1,2,2,0,1,1,900,940,0,0.576271186440678
"1204",12,2,60,0,0,1,0,0,1,1,0,0,1,1000,1016,0,0.583333333333333
"1205",12,2,61,0,0,1,0,1,1,1,0,0,1,1100,889,0,0.590163934426229
"1206",12,2,62,1,0,0,1,0,2,2,0,1,1,1200,1573,0,0.596774193548387
"1207",12,2,63,1,0,1,0,1,3,1,1,0,0,1100,728,0,0.587301587301587
"1208",12,2,64,1,1,0,0,0,1,1,0,0,1,1200,1708,0,0.59375
"1209",12,3,65,1,1,1,0,1,3,1,1,0,0,1100,1239,0,0.584615384615385
"1210",12,3,66,1,1,1,0,1,3,1,1,0,0,1000,1862,0,0.575757575757576
"1211",12,3,67,1,0,1,0,0,3,1,1,0,0,900,725,0,0.567164179104478
"1212",12,3,68,0,1,0,0,1,1,1,0,0,1,1000,1112,0,0.573529411764706
"1213",12,3,69,1,1,0,0,1,1,1,0,0,1,1100,925,0,0.579710144927536
"1214",12,3,70,0,1,1,1,0,2,2,0,1,1,1200,2145,0,0.585714285714286
"1215",12,3,71,1,0,1,0,1,3,2,1,0,0,1100,5315,0,0.577464788732394
"1216",12,3,72,1,0,1,1,0,4,2,1,1,0,1000,2647,0,0.569444444444444
"1217",12,3,73,0,1,0,1,0,2,2,0,1,1,1100,1446,0,0.575342465753425
"1218",12,3,74,1,0,1,1,0,4,4,1,1,1,1200,5774,1,0.581081081081081
"1219",12,3,75,1,0,1,1,1,4,4,1,1,1,1300,2094,1,0.586666666666667
"1220",12,3,76,0,1,1,0,0,1,1,0,0,1,1400,1905,0,0.592105263157895
"1221",12,3,77,0,1,0,0,0,1,1,0,0,1,1500,1366,0,0.597402597402597
"1222",12,3,78,1,1,1,1,0,4,4,1,1,1,1600,6065,1,0.602564102564103
"1223",12,3,79,0,0,1,0,0,1,1,0,0,1,1700,1126,0,0.607594936708861
"1224",12,3,80,1,0,1,0,1,3,2,1,0,0,1600,5107,0,0.6
"1225",12,3,81,0,1,1,0,1,1,1,0,0,1,1700,894,0,0.604938271604938
"1226",12,3,82,0,0,0,1,0,2,2,0,1,1,1800,2267,0,0.609756097560976
"1227",12,3,83,0,0,0,1,1,2,2,0,1,1,1900,3370,0,0.614457831325301
"1228",12,3,84,1,0,1,0,0,3,3,1,0,1,2000,4243,1,0.619047619047619
"1229",12,3,85,1,0,0,1,0,2,4,0,1,0,1900,5773,1,0.611764705882353
"1230",12,3,86,0,1,0,0,1,1,1,0,0,1,2000,1334,0,0.616279069767442
"1231",12,3,87,1,0,0,0,0,1,3,0,0,0,1900,2594,1,0.609195402298851
"1232",12,3,88,1,0,0,0,1,1,4,0,0,0,1800,2675,1,0.602272727272727
"1233",12,3,89,0,0,1,1,1,2,1,0,1,0,1700,768,0,0.595505617977528
"1234",12,3,90,1,0,1,0,0,3,4,1,0,0,1600,3682,1,0.588888888888889
"1235",12,3,91,1,0,1,1,0,4,4,1,1,1,1700,5312,1,0.593406593406593
"1236",12,3,92,0,1,1,0,1,1,1,0,0,1,1800,1043,0,0.597826086956522
"1237",12,3,93,1,1,0,0,0,1,3,0,0,0,1700,6003,1,0.591397849462366
"1238",12,3,94,1,1,0,0,0,1,2,0,0,0,1600,1731,0,0.585106382978723
"1239",12,3,95,1,0,0,1,0,2,4,0,1,0,1500,3831,1,0.578947368421053
"1240",12,3,96,0,0,1,0,1,1,1,0,0,1,1600,894,0,0.583333333333333
"1241",12,0,97,0,0,1,1,1,2,2,0,1,1,1600,11654,0,0.587628865979381
"1242",12,0,98,0,1,0,0,0,1,1,0,0,1,1600,3452,0,0.591836734693878
"1243",12,0,99,0,0,1,0,1,1,3,0,0,0,1600,5543,1,0.585858585858586
"1244",12,0,100,0,1,0,1,0,2,2,0,1,1,1600,2896,0,0.59
"1245",12,0,101,1,1,1,1,0,4,4,1,1,1,1600,2409,1,0.594059405940594
"1246",12,0,102,1,1,0,1,1,2,4,0,1,0,1600,1888,1,0.588235294117647
"1247",12,0,103,1,0,1,0,1,3,3,1,0,1,1600,2443,1,0.592233009708738
"1248",12,0,104,1,1,1,1,1,4,4,1,1,1,1600,4295,1,0.596153846153846
"1249",13,1,1,0,0,1,0,0,1,1,0,0,1,100,14280,0,1
"1250",13,1,2,1,0,0,1,0,2,4,0,1,0,0,3824,1,0.5
"1251",13,1,3,0,0,1,1,0,2,4,0,1,0,-100,5479,1,0.333333333333333
"1252",13,1,4,0,1,1,0,1,1,1,0,0,1,0,6221,0,0.5
"1253",13,1,5,1,1,0,1,0,2,2,0,1,1,100,1085,0,0.6
"1254",13,1,6,0,0,1,1,0,2,2,0,1,1,200,731,0,0.666666666666667
"1255",13,1,7,0,0,1,0,1,1,1,0,0,1,300,870,0,0.714285714285714
"1256",13,1,8,0,0,0,1,0,2,2,0,1,1,400,2796,0,0.75
"1257",13,1,9,1,0,0,0,1,1,4,0,0,0,300,10717,1,0.666666666666667
"1258",13,1,10,1,0,0,1,0,2,2,0,1,1,400,1177,0,0.7
"1259",13,1,11,1,1,0,1,0,2,2,0,1,1,500,843,0,0.727272727272727
"1260",13,1,12,0,1,0,0,1,1,1,0,0,1,600,1940,0,0.75
"1261",13,1,13,0,1,1,0,0,1,1,0,0,1,700,1677,0,0.769230769230769
"1262",13,1,14,1,0,1,1,0,4,2,1,1,0,600,1700,0,0.714285714285714
"1263",13,1,15,1,0,1,0,1,3,1,1,0,0,500,1504,0,0.666666666666667
"1264",13,1,16,1,0,1,1,1,4,1,1,1,0,400,5211,0,0.625
"1265",13,1,17,0,1,1,1,0,2,2,0,1,1,500,3266,0,0.647058823529412
"1266",13,1,18,1,1,0,1,1,2,4,0,1,0,400,3392,1,0.611111111111111
"1267",13,1,19,1,1,0,0,1,1,1,0,0,1,500,4266,0,0.631578947368421
"1268",13,1,20,0,1,0,1,0,2,2,0,1,1,600,4161,0,0.65
"1269",13,1,21,1,0,0,1,1,2,1,0,1,0,500,10930,0,0.619047619047619
"1270",13,1,22,0,0,0,0,1,1,2,0,0,0,400,2870,0,0.590909090909091
"1271",13,1,23,1,1,1,0,0,3,1,1,0,0,300,2811,0,0.565217391304348
"1272",13,1,24,0,1,0,0,1,1,1,0,0,1,400,3363,0,0.583333333333333
"1273",13,1,25,1,0,1,1,1,4,2,1,1,0,300,4182,0,0.56
"1274",13,1,26,1,0,1,0,0,3,3,1,0,1,400,3998,1,0.576923076923077
"1275",13,1,27,0,0,0,0,1,1,1,0,0,1,500,2120,0,0.592592592592593
"1276",13,1,28,1,0,1,0,1,3,4,1,0,0,400,2964,1,0.571428571428571
"1277",13,1,29,0,1,0,0,0,1,1,0,0,1,500,2782,0,0.586206896551724
"1278",13,1,30,0,1,0,0,1,1,1,0,0,1,600,1505,0,0.6
"1279",13,1,31,1,1,1,1,1,4,4,1,1,1,700,4925,1,0.612903225806452
"1280",13,1,32,0,0,0,1,0,2,2,0,1,1,800,6241,0,0.625
"1281",13,2,33,1,0,0,1,1,2,3,0,1,0,700,8368,1,0.606060606060606
"1282",13,2,34,0,0,0,0,0,1,1,0,0,1,800,1114,0,0.617647058823529
"1283",13,2,35,1,1,1,0,1,3,3,1,0,1,900,5911,1,0.628571428571429
"1284",13,2,36,0,1,0,0,0,1,1,0,0,1,1000,813,0,0.638888888888889
"1285",13,2,37,0,1,0,1,1,2,2,0,1,1,1100,2948,0,0.648648648648649
"1286",13,2,38,1,0,1,1,0,4,3,1,1,0,1000,1896,1,0.631578947368421
"1287",13,2,39,1,1,1,1,0,4,4,1,1,1,1100,723,1,0.641025641025641
"1288",13,2,40,1,1,1,0,0,3,3,1,0,1,1200,3462,1,0.65
"1289",13,2,41,0,1,0,1,1,2,2,0,1,1,1300,1517,0,0.658536585365854
"1290",13,2,42,1,1,0,1,1,2,4,0,1,0,1200,5657,1,0.642857142857143
"1291",13,2,43,0,0,1,1,0,2,1,0,1,0,1100,3600,0,0.627906976744186
"1292",13,2,44,1,1,0,1,0,2,2,0,1,1,1200,2992,0,0.636363636363636
"1293",13,2,45,1,1,0,0,0,1,1,0,0,1,1300,3211,0,0.644444444444444
"1294",13,2,46,0,0,1,1,1,2,4,0,1,0,1200,4666,1,0.630434782608696
"1295",13,2,47,0,1,0,1,0,2,2,0,1,1,1300,1697,0,0.638297872340426
"1296",13,2,48,0,0,1,1,1,2,2,0,1,1,1400,1047,0,0.645833333333333
"1297",13,2,49,0,0,1,0,0,1,1,0,0,1,1500,1461,0,0.653061224489796
"1298",13,2,50,0,1,0,0,0,1,1,0,0,1,1600,884,0,0.66
"1299",13,2,51,0,0,1,1,1,2,2,0,1,1,1700,3043,0,0.666666666666667
"1300",13,2,52,1,1,1,1,0,4,4,1,1,1,1800,4681,1,0.673076923076923
"1301",13,2,53,1,0,1,1,0,4,4,1,1,1,1900,718,1,0.679245283018868
"1302",13,2,54,1,0,0,0,0,1,1,0,0,1,2000,2955,0,0.685185185185185
"1303",13,2,55,0,1,0,1,1,2,2,0,1,1,2100,1420,0,0.690909090909091
"1304",13,2,56,1,0,0,1,1,2,2,0,1,1,2200,805,0,0.696428571428571
"1305",13,2,57,1,1,1,1,1,4,2,1,1,0,2100,1062,0,0.684210526315789
"1306",13,2,58,0,1,1,0,1,1,1,0,0,1,2200,2818,0,0.689655172413793
"1307",13,2,59,1,0,0,0,1,1,1,0,0,1,2300,1643,0,0.694915254237288
"1308",13,2,60,1,1,1,0,1,3,1,1,0,0,2200,1243,0,0.683333333333333
"1309",13,2,61,0,1,1,1,0,2,2,0,1,1,2300,1546,0,0.688524590163934
"1310",13,2,62,1,1,0,0,0,1,1,0,0,1,2400,1357,0,0.693548387096774
"1311",13,2,63,0,0,1,0,1,1,1,0,0,1,2500,1352,0,0.698412698412698
"1312",13,2,64,0,0,0,0,0,1,1,0,0,1,2600,676,0,0.703125
"1313",13,3,65,0,1,0,1,0,2,2,0,1,1,2700,2041,0,0.707692307692308
"1314",13,3,66,1,1,1,1,0,4,2,1,1,0,2600,4457,0,0.696969696969697
"1315",13,3,67,1,0,1,0,0,3,1,1,0,0,2500,2509,0,0.686567164179104
"1316",13,3,68,0,1,1,1,1,2,2,0,1,1,2600,2785,0,0.691176470588235
"1317",13,3,69,0,1,1,0,0,1,1,0,0,1,2700,1179,0,0.695652173913043
"1318",13,3,70,0,0,0,1,1,2,2,0,1,1,2800,1556,0,0.7
"1319",13,3,71,0,1,1,1,1,2,2,0,1,1,2900,1288,0,0.704225352112676
"1320",13,3,72,1,0,0,1,0,2,2,0,1,1,3000,1445,0,0.708333333333333
"1321",13,3,73,1,0,1,0,0,3,3,1,0,1,3100,1531,1,0.712328767123288
"1322",13,3,74,0,0,0,1,0,2,2,0,1,1,3200,1743,0,0.716216216216216
"1323",13,3,75,1,1,0,0,1,1,1,0,0,1,3300,1844,0,0.72
"1324",13,3,76,0,1,1,1,1,2,2,0,1,1,3400,1755,0,0.723684210526316
"1325",13,3,77,0,0,0,1,1,2,2,0,1,1,3500,942,0,0.727272727272727
"1326",13,3,78,1,1,1,0,0,3,3,1,0,1,3600,1258,1,0.730769230769231
"1327",13,3,79,0,0,0,0,1,1,1,0,0,1,3700,1368,0,0.734177215189873
"1328",13,3,80,1,1,0,0,0,1,1,0,0,1,3800,2795,0,0.7375
"1329",13,3,81,0,1,1,0,1,1,1,0,0,1,3900,1277,0,0.740740740740741
"1330",13,3,82,1,0,1,1,1,4,2,1,1,0,3800,3003,0,0.731707317073171
"1331",13,3,83,0,0,0,1,1,2,2,0,1,1,3900,771,0,0.734939759036145
"1332",13,3,84,1,0,1,0,1,3,1,1,0,0,3800,1685,0,0.726190476190476
"1333",13,3,85,1,0,0,0,0,1,1,0,0,1,3900,1188,0,0.729411764705882
"1334",13,3,86,0,0,0,0,0,1,1,0,0,1,4000,939,0,0.732558139534884
"1335",13,3,87,1,1,1,0,1,3,3,1,0,1,4100,1415,1,0.735632183908046
"1336",13,3,88,1,0,0,0,0,1,1,0,0,1,4200,1672,0,0.738636363636364
"1337",13,3,89,0,0,1,0,0,1,1,0,0,1,4300,1741,0,0.741573033707865
"1338",13,3,90,0,0,1,0,1,1,1,0,0,1,4400,977,0,0.744444444444444
"1339",13,3,91,1,1,0,1,1,2,2,0,1,1,4500,2403,0,0.747252747252747
"1340",13,3,92,1,1,1,1,1,4,2,1,1,0,4400,3188,0,0.739130434782609
"1341",13,3,93,1,1,0,0,1,1,1,0,0,1,4500,3259,0,0.741935483870968
"1342",13,3,94,1,0,0,0,1,1,1,0,0,1,4600,938,0,0.74468085106383
"1343",13,3,95,0,1,1,1,0,2,2,0,1,1,4700,6966,0,0.747368421052632
"1344",13,3,96,0,1,1,0,0,1,1,0,0,1,4800,1176,0,0.75
"1345",13,0,97,1,0,1,0,1,3,3,1,0,1,4800,10749,1,0.752577319587629
"1346",13,0,98,1,1,1,1,1,4,4,1,1,1,4800,2812,1,0.755102040816326
"1347",13,0,99,1,1,0,1,1,2,2,0,1,1,4800,2308,0,0.757575757575758
"1348",13,0,100,0,1,0,1,0,2,2,0,1,1,4800,3764,0,0.76
"1349",13,0,101,0,1,0,0,0,1,1,0,0,1,4800,1212,0,0.762376237623762
"1350",13,0,102,1,1,1,1,0,4,2,1,1,0,4800,5842,0,0.754901960784314
"1351",13,0,103,0,0,1,0,1,1,2,0,0,0,4800,6381,0,0.747572815533981
"1352",13,0,104,0,0,1,1,1,2,2,0,1,1,4800,2357,0,0.75
"1353",14,1,1,0,1,1,1,0,2,3,0,1,0,-100,16655,1,0
"1354",14,1,2,1,1,0,0,0,1,4,0,0,0,-200,7982,1,0
"1355",14,1,3,0,1,0,1,1,2,2,0,1,1,-100,7038,0,0.333333333333333
"1356",14,1,4,1,1,0,1,0,2,1,0,1,0,-200,4853,0,0.25
"1357",14,1,5,0,1,0,0,0,1,3,0,0,0,-300,12826,1,0.2
"1358",14,1,6,1,0,1,0,1,3,1,1,0,0,-400,20131,0,0.166666666666667
"1359",14,1,7,0,0,1,0,1,1,1,0,0,1,-300,6661,0,0.285714285714286
"1360",14,1,8,1,0,0,0,1,1,4,0,0,0,-400,4101,1,0.25
"1361",14,1,9,0,1,1,1,0,2,3,0,1,0,-500,5223,1,0.222222222222222
"1362",14,1,10,0,1,0,0,0,1,1,0,0,1,-400,1983,0,0.3
"1363",14,1,11,0,0,1,1,1,2,1,0,1,0,-500,6424,0,0.272727272727273
"1364",14,1,12,0,1,1,1,0,2,2,0,1,1,-400,14400,0,0.333333333333333
"1365",14,1,13,0,1,0,0,1,1,1,0,0,1,-300,2281,0,0.384615384615385
"1366",14,1,14,0,0,1,0,0,1,1,0,0,1,-200,1045,0,0.428571428571429
"1367",14,1,15,1,0,1,0,1,3,1,1,0,0,-300,1492,0,0.4
"1368",14,1,16,1,0,1,0,0,3,3,1,0,1,-200,3705,1,0.4375
"1369",14,1,17,1,1,0,0,1,1,3,0,0,0,-300,3533,1,0.411764705882353
"1370",14,1,18,0,1,1,1,1,2,1,0,1,0,-400,4793,0,0.388888888888889
"1371",14,1,19,1,1,0,0,0,1,1,0,0,1,-300,3066,0,0.421052631578947
"1372",14,1,20,1,1,0,1,0,2,4,0,1,0,-400,4287,1,0.4
"1373",14,1,21,0,1,0,1,0,2,1,0,1,0,-500,1404,0,0.380952380952381
"1374",14,1,22,1,0,1,0,1,3,3,1,0,1,-400,3236,1,0.409090909090909
"1375",14,1,23,0,0,0,1,0,2,1,0,1,0,-500,1740,0,0.391304347826087
"1376",14,1,24,0,1,1,0,1,1,1,0,0,1,-400,2222,0,0.416666666666667
"1377",14,1,25,1,1,1,0,0,3,3,1,0,1,-300,12366,1,0.44
"1378",14,1,26,0,0,1,0,1,1,1,0,0,1,-200,1329,0,0.461538461538462
"1379",14,1,27,0,1,0,1,1,2,2,0,1,1,-100,3996,0,0.481481481481481
"1380",14,1,28,1,1,0,1,0,2,2,0,1,1,0,4677,0,0.5
"1381",14,1,29,0,0,0,0,1,1,1,0,0,1,100,1747,0,0.517241379310345
"1382",14,1,30,1,0,0,0,1,1,2,0,0,0,0,2973,0,0.5
"1383",14,1,31,1,0,0,1,0,2,2,0,1,1,100,2903,0,0.516129032258065
"1384",14,1,32,1,0,0,0,0,1,1,0,0,1,200,2595,0,0.53125
"1385",14,2,33,0,1,1,1,1,2,3,0,1,0,100,2292,1,0.515151515151515
"1386",14,2,34,1,0,0,1,1,2,2,0,1,1,200,2481,0,0.529411764705882
"1387",14,2,35,1,1,1,0,1,3,3,1,0,1,300,2270,1,0.542857142857143
"1388",14,2,36,1,1,1,1,0,4,3,1,1,0,200,4789,1,0.527777777777778
"1389",14,2,37,0,0,0,0,1,1,1,0,0,1,300,3869,0,0.540540540540541
"1390",14,2,38,0,1,0,1,1,2,2,0,1,1,400,2771,0,0.552631578947368
"1391",14,2,39,1,1,1,0,0,3,3,1,0,1,500,3061,1,0.564102564102564
"1392",14,2,40,0,0,1,0,1,1,2,0,0,0,400,3852,0,0.55
"1393",14,2,41,1,1,0,0,1,1,1,0,0,1,500,3082,0,0.560975609756098
"1394",14,2,42,0,0,0,0,1,1,1,0,0,1,600,967,0,0.571428571428571
"1395",14,2,43,0,0,0,1,1,2,1,0,1,0,500,1986,0,0.558139534883721
"1396",14,2,44,1,0,0,1,1,2,2,0,1,1,600,987,0,0.568181818181818
"1397",14,2,45,0,1,1,0,0,1,3,0,0,0,500,2515,1,0.555555555555556
"1398",14,2,46,0,0,0,1,0,2,3,0,1,0,400,1719,1,0.543478260869565
"1399",14,2,47,1,0,0,1,1,2,2,0,1,1,500,2651,0,0.553191489361702
"1400",14,2,48,1,1,1,1,1,4,3,1,1,0,400,10466,1,0.541666666666667
"1401",14,2,49,1,1,0,0,1,1,2,0,0,0,300,3997,0,0.530612244897959
"1402",14,2,50,0,1,1,1,1,2,2,0,1,1,400,2725,0,0.54
"1403",14,2,51,1,0,1,1,1,4,4,1,1,1,500,2169,1,0.549019607843137
"1404",14,2,52,1,1,1,1,1,4,4,1,1,1,600,841,1,0.557692307692308
"1405",14,2,53,0,1,0,1,0,2,1,0,1,0,500,4344,0,0.547169811320755
"1406",14,2,54,0,1,1,0,0,1,3,0,0,0,400,2594,1,0.537037037037037
"1407",14,2,55,1,1,0,1,1,2,2,0,1,1,500,7410,0,0.545454545454545
"1408",14,2,56,1,0,1,1,0,4,3,1,1,0,400,2386,1,0.535714285714286
"1409",14,2,57,1,1,1,1,1,4,4,1,1,1,500,938,1,0.543859649122807
"1410",14,2,58,0,1,0,1,0,2,1,0,1,0,400,5763,0,0.53448275862069
"1411",14,2,59,1,1,1,0,0,3,2,1,0,0,300,1430,0,0.525423728813559
"1412",14,2,60,0,1,1,0,1,1,3,0,0,0,200,1357,1,0.516666666666667
"1413",14,2,61,1,0,0,1,0,2,2,0,1,1,300,2574,0,0.524590163934426
"1414",14,2,62,0,0,0,1,0,2,2,0,1,1,400,3216,0,0.532258064516129
"1415",14,2,63,1,0,1,1,1,4,4,1,1,1,500,2097,1,0.53968253968254
"1416",14,2,64,1,1,1,0,1,3,3,1,0,1,600,5796,1,0.546875
"1417",14,3,65,0,0,1,1,0,2,4,0,1,0,500,3341,1,0.538461538461538
"1418",14,3,66,0,1,1,0,1,1,1,0,0,1,600,3671,0,0.545454545454545
"1419",14,3,67,0,0,1,1,1,2,2,0,1,1,700,3478,0,0.552238805970149
"1420",14,3,68,1,0,0,0,0,1,3,0,0,0,600,1722,1,0.544117647058823
"1421",14,3,69,1,1,1,1,0,4,4,1,1,1,700,1198,1,0.550724637681159
"1422",14,3,70,0,0,0,1,1,2,1,0,1,0,600,3598,0,0.542857142857143
"1423",14,3,71,1,0,1,0,0,3,2,1,0,0,500,2278,0,0.535211267605634
"1424",14,3,72,1,1,1,0,1,3,3,1,0,1,600,2355,1,0.541666666666667
"1425",14,3,73,1,0,1,1,0,4,4,1,1,1,700,1343,1,0.547945205479452
"1426",14,3,74,0,1,0,0,1,1,1,0,0,1,800,1168,0,0.554054054054054
"1427",14,3,75,0,1,0,0,1,1,1,0,0,1,900,1786,0,0.56
"1428",14,3,76,0,0,1,0,0,1,2,0,0,0,800,2861,0,0.552631578947368
"1429",14,3,77,1,1,1,1,0,4,4,1,1,1,900,1393,1,0.558441558441558
"1430",14,3,78,0,0,1,1,0,2,2,0,1,1,1000,2728,0,0.564102564102564
"1431",14,3,79,0,1,0,0,0,1,1,0,0,1,1100,1644,0,0.569620253164557
"1432",14,3,80,0,1,1,0,0,1,2,0,0,0,1000,9467,0,0.5625
"1433",14,3,81,1,0,0,0,0,1,2,0,0,0,900,2049,0,0.555555555555556
"1434",14,3,82,0,0,0,1,1,2,1,0,1,0,800,3407,0,0.548780487804878
"1435",14,3,83,1,0,1,1,0,4,4,1,1,1,900,1735,1,0.55421686746988
"1436",14,3,84,0,0,1,0,0,1,2,0,0,0,800,2498,0,0.547619047619048
"1437",14,3,85,1,1,0,1,1,2,2,0,1,1,900,1845,0,0.552941176470588
"1438",14,3,86,1,0,1,1,1,4,4,1,1,1,1000,1900,1,0.558139534883721
"1439",14,3,87,0,0,1,1,1,2,2,0,1,1,1100,4760,0,0.563218390804598
"1440",14,3,88,0,0,0,0,0,1,1,0,0,1,1200,1281,0,0.568181818181818
"1441",14,3,89,1,0,1,0,0,3,2,1,0,0,1100,1662,0,0.561797752808989
"1442",14,3,90,0,0,0,0,0,1,1,0,0,1,1200,2172,0,0.566666666666667
"1443",14,3,91,0,0,0,0,0,1,1,0,0,1,1300,911,0,0.571428571428571
"1444",14,3,92,1,0,0,1,0,2,3,0,1,0,1200,2226,1,0.565217391304348
"1445",14,3,93,1,1,0,0,0,1,2,0,0,0,1100,3946,0,0.559139784946237
"1446",14,3,94,1,1,0,1,1,2,2,0,1,1,1200,1748,0,0.563829787234043
"1447",14,3,95,1,0,0,0,1,1,2,0,0,0,1100,1687,0,0.557894736842105
"1448",14,3,96,0,0,1,1,0,2,2,0,1,1,1200,2252,0,0.5625
"1449",14,0,97,1,1,1,1,0,4,2,1,1,0,1200,7466,0,0.556701030927835
"1450",14,0,98,0,1,0,1,0,2,1,0,1,0,1200,1100,0,0.551020408163265
"1451",14,0,99,1,0,1,0,1,3,4,1,0,0,1200,2134,1,0.545454545454545
"1452",14,0,100,0,0,1,1,1,2,4,0,1,0,1200,1110,1,0.54
"1453",14,0,101,0,1,0,0,0,1,2,0,0,0,1200,2831,0,0.534653465346535
"1454",14,0,102,0,0,1,0,1,1,2,0,0,0,1200,1580,0,0.529411764705882
"1455",14,0,103,1,1,1,1,1,4,1,1,1,0,1200,2394,0,0.524271844660194
"1456",14,0,104,1,1,0,1,1,2,2,0,1,1,1200,2297,0,0.528846153846154
"1457",15,1,1,0,1,0,1,1,2,1,0,1,0,-100,7514,0,0
"1458",15,1,2,1,0,0,1,1,2,4,0,1,0,-200,4782,1,0
"1459",15,1,3,0,0,1,0,0,1,1,0,0,1,-100,1680,0,0.333333333333333
"1460",15,1,4,1,0,1,0,0,3,2,1,0,0,-200,5949,0,0.25
"1461",15,1,5,0,1,1,0,0,1,1,0,0,1,-100,1871,0,0.4
"1462",15,1,6,0,1,0,1,0,2,2,0,1,1,0,7454,0,0.5
"1463",15,1,7,0,1,1,1,1,2,4,0,1,0,-100,2948,1,0.428571428571429
"1464",15,1,8,0,1,0,0,1,1,4,0,0,0,-200,4975,1,0.375
"1465",15,1,9,0,0,1,0,1,1,1,0,0,1,-100,4575,0,0.444444444444444
"1466",15,1,10,1,0,1,1,1,4,4,1,1,1,0,5971,1,0.5
"1467",15,1,11,0,0,0,1,1,2,3,0,1,0,-100,3274,1,0.454545454545455
"1468",15,1,12,0,0,0,1,0,2,2,0,1,1,0,8761,0,0.5
"1469",15,1,13,1,0,1,0,0,3,3,1,0,1,100,3498,1,0.538461538461538
"1470",15,1,14,0,0,1,1,1,2,4,0,1,0,0,7177,1,0.5
"1471",15,1,15,0,1,1,1,1,2,4,0,1,0,-100,1929,1,0.466666666666667
"1472",15,1,16,1,1,0,0,0,1,3,0,0,0,-200,3974,1,0.4375
"1473",15,1,17,1,0,1,1,0,4,4,1,1,1,-100,16790,1,0.470588235294118
"1474",15,1,18,0,0,0,0,0,1,1,0,0,1,0,4390,0,0.5
"1475",15,1,19,1,0,1,0,1,3,3,1,0,1,100,3065,1,0.526315789473684
"1476",15,1,20,1,0,1,0,1,3,3,1,0,1,200,2974,1,0.55
"1477",15,1,21,0,1,0,1,1,2,2,0,1,1,300,3239,0,0.571428571428571
"1478",15,1,22,1,1,0,1,0,2,4,0,1,0,200,5215,1,0.545454545454545
"1479",15,1,23,1,1,0,0,0,1,3,0,0,0,100,4935,1,0.521739130434783
"1480",15,1,24,0,0,1,1,1,2,4,0,1,0,0,5562,1,0.5
"1481",15,1,25,1,1,0,0,1,1,3,0,0,0,-100,6299,1,0.48
"1482",15,1,26,1,1,0,1,0,2,2,0,1,1,0,7600,0,0.5
"1483",15,1,27,1,1,1,1,0,4,4,1,1,1,100,3816,1,0.518518518518518
"1484",15,1,28,0,0,0,1,1,2,2,0,1,1,200,4423,0,0.535714285714286
"1485",15,1,29,1,1,0,1,1,2,4,0,1,0,100,5246,1,0.517241379310345
"1486",15,1,30,0,1,0,1,0,2,2,0,1,1,200,5406,0,0.533333333333333
"1487",15,1,31,0,1,1,1,0,2,2,0,1,1,300,4021,0,0.548387096774194
"1488",15,1,32,0,1,1,1,0,2,2,0,1,1,400,8606,0,0.5625
"1489",15,2,33,1,1,1,1,1,4,4,1,1,1,500,4301,1,0.575757575757576
"1490",15,2,34,1,1,0,1,1,2,4,0,1,0,400,3232,1,0.558823529411765
"1491",15,2,35,0,0,1,1,0,2,2,0,1,1,500,10550,0,0.571428571428571
"1492",15,2,36,1,0,1,0,1,3,3,1,0,1,600,3194,1,0.583333333333333
"1493",15,2,37,0,0,0,1,0,2,2,0,1,1,700,2844,0,0.594594594594595
"1494",15,2,38,0,0,0,0,0,1,1,0,0,1,800,3483,0,0.605263157894737
"1495",15,2,39,1,1,0,0,1,1,1,0,0,1,900,3696,0,0.615384615384615
"1496",15,2,40,1,0,0,0,1,1,1,0,0,1,1000,2428,0,0.625
"1497",15,2,41,0,1,0,1,0,2,2,0,1,1,1100,2813,0,0.634146341463415
"1498",15,2,42,1,1,1,0,1,3,1,1,0,0,1000,8900,0,0.619047619047619
"1499",15,2,43,1,1,1,1,1,4,4,1,1,1,1100,3369,1,0.627906976744186
"1500",15,2,44,0,1,0,0,0,1,1,0,0,1,1200,2809,0,0.636363636363636
"1501",15,2,45,0,0,1,0,0,1,1,0,0,1,1300,3795,0,0.644444444444444
"1502",15,2,46,1,0,0,0,0,1,1,0,0,1,1400,1411,0,0.652173913043478
"1503",15,2,47,1,1,0,1,1,2,2,0,1,1,1500,2539,0,0.659574468085106
"1504",15,2,48,0,1,0,0,1,1,1,0,0,1,1600,1926,0,0.666666666666667
"1505",15,2,49,0,0,1,1,0,2,2,0,1,1,1700,2202,0,0.673469387755102
"1506",15,2,50,0,0,0,0,1,1,1,0,0,1,1800,1706,0,0.68
"1507",15,2,51,0,1,1,0,0,1,1,0,0,1,1900,3575,0,0.686274509803922
"1508",15,2,52,0,0,0,0,1,1,1,0,0,1,2000,1576,0,0.692307692307692
"1509",15,2,53,0,0,0,1,0,2,2,0,1,1,2100,2187,0,0.69811320754717
"1510",15,2,54,1,0,0,1,0,2,2,0,1,1,2200,2444,0,0.703703703703704
"1511",15,2,55,0,1,1,0,1,1,1,0,0,1,2300,3242,0,0.709090909090909
"1512",15,2,56,1,0,0,0,1,1,1,0,0,1,2400,7321,0,0.714285714285714
"1513",15,2,57,1,1,1,0,1,3,1,1,0,0,2300,3309,0,0.701754385964912
"1514",15,2,58,0,1,0,1,1,2,2,0,1,1,2400,2537,0,0.706896551724138
"1515",15,2,59,1,1,1,1,0,4,4,1,1,1,2500,4349,1,0.711864406779661
"1516",15,2,60,0,0,0,0,1,1,1,0,0,1,2600,2470,0,0.716666666666667
"1517",15,2,61,1,0,1,1,1,4,4,1,1,1,2700,3811,1,0.721311475409836
"1518",15,2,62,1,0,1,1,0,4,4,1,1,1,2800,2187,1,0.725806451612903
"1519",15,2,63,1,0,0,0,0,1,1,0,0,1,2900,2212,0,0.73015873015873
"1520",15,2,64,1,1,1,0,0,3,3,1,0,1,3000,5283,1,0.734375
"1521",15,3,65,0,0,0,1,1,2,2,0,1,1,3100,2570,0,0.738461538461539
"1522",15,3,66,0,0,0,0,0,1,1,0,0,1,3200,5115,0,0.742424242424242
"1523",15,3,67,0,1,1,0,1,1,3,0,0,0,3100,3809,1,0.73134328358209
"1524",15,3,68,0,1,1,0,1,1,1,0,0,1,3200,8479,0,0.735294117647059
"1525",15,3,69,0,0,1,0,1,1,1,0,0,1,3300,5989,0,0.739130434782609
"1526",15,3,70,1,1,0,0,1,1,3,0,0,0,3200,4863,1,0.728571428571429
"1527",15,3,71,1,1,1,1,1,4,4,1,1,1,3300,2517,1,0.732394366197183
"1528",15,3,72,0,0,1,0,1,1,1,0,0,1,3400,4615,0,0.736111111111111
"1529",15,3,73,0,1,0,0,0,1,1,0,0,1,3500,3912,0,0.73972602739726
"1530",15,3,74,0,1,1,0,0,1,1,0,0,1,3600,3531,0,0.743243243243243
"1531",15,3,75,1,0,0,0,0,1,3,0,0,0,3500,4679,1,0.733333333333333
"1532",15,3,76,0,0,1,1,0,2,2,0,1,1,3600,12180,0,0.736842105263158
"1533",15,3,77,0,1,1,1,1,2,2,0,1,1,3700,3381,0,0.74025974025974
"1534",15,3,78,1,0,0,1,1,2,2,0,1,1,3800,4215,0,0.743589743589744
"1535",15,3,79,1,1,1,0,0,3,3,1,0,1,3900,7727,1,0.746835443037975
"1536",15,3,80,1,0,1,1,0,4,4,1,1,1,4000,4146,1,0.75
"1537",15,3,81,1,1,0,1,0,2,2,0,1,1,4100,4430,0,0.753086419753086
"1538",15,3,82,1,1,1,0,1,3,3,1,0,1,4200,5668,1,0.75609756097561
"1539",15,3,83,1,0,1,1,1,4,4,1,1,1,4300,2948,1,0.759036144578313
"1540",15,3,84,1,1,1,0,0,3,3,1,0,1,4400,6876,1,0.761904761904762
"1541",15,3,85,1,1,1,1,0,4,4,1,1,1,4500,2940,1,0.764705882352941
"1542",15,3,86,1,0,0,1,0,2,2,0,1,1,4600,4308,0,0.767441860465116
"1543",15,3,87,1,0,0,1,0,2,2,0,1,1,4700,4057,0,0.770114942528736
"1544",15,3,88,0,0,1,0,0,1,1,0,0,1,4800,4870,0,0.772727272727273
"1545",15,3,89,1,0,0,0,1,1,1,0,0,1,4900,4405,0,0.775280898876405
"1546",15,3,90,0,1,0,0,1,1,1,0,0,1,5000,3757,0,0.777777777777778
"1547",15,3,91,1,1,0,0,0,1,1,0,0,1,5100,4120,0,0.78021978021978
"1548",15,3,92,1,0,0,1,1,2,2,0,1,1,5200,3813,0,0.782608695652174
"1549",15,3,93,0,1,0,0,0,1,1,0,0,1,5300,2756,0,0.78494623655914
"1550",15,3,94,0,0,1,1,1,2,2,0,1,1,5400,6462,0,0.787234042553192
"1551",15,3,95,0,1,1,1,0,2,2,0,1,1,5500,3437,0,0.789473684210526
"1552",15,3,96,1,0,1,0,0,3,3,1,0,1,5600,3925,1,0.791666666666667
"1553",15,0,97,1,1,1,1,1,4,4,1,1,1,5600,8632,1,0.793814432989691
"1554",15,0,98,1,1,0,1,1,2,2,0,1,1,5600,7484,0,0.795918367346939
"1555",15,0,99,0,0,1,1,1,2,2,0,1,1,5600,7353,0,0.797979797979798
"1556",15,0,100,0,1,0,1,0,2,2,0,1,1,5600,3792,0,0.8
"1557",15,0,101,1,0,1,0,1,3,3,1,0,1,5600,5063,1,0.801980198019802
"1558",15,0,102,0,0,1,0,1,1,1,0,0,1,5600,5921,0,0.803921568627451
"1559",15,0,103,0,1,0,0,0,1,1,0,0,1,5600,4428,0,0.805825242718447
"1560",15,0,104,1,1,1,1,0,4,4,1,1,1,5600,4479,1,0.807692307692308
"1561",16,1,1,1,0,1,0,0,3,3,1,0,1,100,6587,1,1
"1562",16,1,2,1,1,1,1,0,4,3,1,1,0,0,6747,1,0.5
"1563",16,1,3,0,0,1,0,0,1,1,0,0,1,100,3979,0,0.666666666666667
"1564",16,1,4,0,1,1,0,0,1,1,0,0,1,200,3741,0,0.75
"1565",16,1,5,0,1,0,1,0,2,2,0,1,1,300,3961,0,0.8
"1566",16,1,6,1,1,0,1,0,2,4,0,1,0,200,1642,1,0.666666666666667
"1567",16,1,7,0,0,1,1,1,2,2,0,1,1,300,5433,0,0.714285714285714
"1568",16,1,8,1,1,1,0,0,3,3,1,0,1,400,3623,1,0.75
"1569",16,1,9,0,1,0,1,0,2,2,0,1,1,500,3256,0,0.777777777777778
"1570",16,1,10,0,0,0,1,0,2,2,0,1,1,600,4406,0,0.8
"1571",16,1,11,1,0,0,1,0,2,4,0,1,0,500,3726,1,0.727272727272727
"1572",16,1,12,0,0,0,0,0,1,1,0,0,1,600,1961,0,0.75
"1573",16,1,13,0,1,0,0,1,1,1,0,0,1,700,2235,0,0.769230769230769
"1574",16,1,14,1,1,1,0,1,3,3,1,0,1,800,2571,1,0.785714285714286
"1575",16,1,15,0,0,1,0,0,1,1,0,0,1,900,1844,0,0.8
"1576",16,1,16,1,1,1,0,0,3,3,1,0,1,1000,1579,1,0.8125
"1577",16,1,17,1,0,1,1,1,4,4,1,1,1,1100,7629,1,0.823529411764706
"1578",16,1,18,1,0,0,0,1,1,3,0,0,0,1000,1716,1,0.777777777777778
"1579",16,1,19,0,0,0,1,1,2,2,0,1,1,1100,2087,0,0.789473684210526
"1580",16,1,20,1,0,0,0,0,1,3,0,0,0,1000,2035,1,0.75
"1581",16,1,21,0,1,1,1,0,2,2,0,1,1,1100,1690,0,0.761904761904762
"1582",16,1,22,1,1,1,1,1,4,4,1,1,1,1200,3951,1,0.772727272727273
"1583",16,1,23,0,1,0,0,1,1,1,0,0,1,1300,2000,0,0.782608695652174
"1584",16,1,24,0,1,1,1,1,2,2,0,1,1,1400,3634,0,0.791666666666667
"1585",16,1,25,1,0,0,0,0,1,3,0,0,0,1300,1567,1,0.76
"1586",16,1,26,1,0,1,0,1,3,3,1,0,1,1400,3009,1,0.769230769230769
"1587",16,1,27,0,0,1,0,1,1,1,0,0,1,1500,3003,0,0.777777777777778
"1588",16,1,28,0,0,1,1,1,2,2,0,1,1,1600,1378,0,0.785714285714286
"1589",16,1,29,1,0,0,1,1,2,4,0,1,0,1500,3028,1,0.758620689655172
"1590",16,1,30,1,0,1,1,0,4,4,1,1,1,1600,2308,1,0.766666666666667
"1591",16,1,31,0,1,1,0,0,1,1,0,0,1,1700,1206,0,0.774193548387097
"1592",16,1,32,0,1,0,1,1,2,2,0,1,1,1800,2895,0,0.78125
"1593",16,2,33,1,0,0,1,0,2,2,0,1,1,1900,3212,0,0.787878787878788
"1594",16,2,34,0,0,0,1,1,2,2,0,1,1,2000,1212,0,0.794117647058823
"1595",16,2,35,0,0,0,0,1,1,1,0,0,1,2100,1100,0,0.8
"1596",16,2,36,1,1,0,0,1,1,3,0,0,0,2000,1824,1,0.777777777777778
"1597",16,2,37,1,0,0,1,1,2,2,0,1,1,2100,2136,0,0.783783783783784
"1598",16,2,38,1,0,1,0,0,3,1,1,0,0,2000,1739,0,0.763157894736842
"1599",16,2,39,1,1,1,0,1,3,3,1,0,1,2100,2742,1,0.769230769230769
"1600",16,2,40,0,0,0,0,0,1,1,0,0,1,2200,953,0,0.775
"1601",16,2,41,0,1,0,1,0,2,2,0,1,1,2300,1172,0,0.780487804878049
"1602",16,2,42,0,1,1,1,0,2,4,0,1,0,2200,5317,1,0.761904761904762
"1603",16,2,43,1,1,0,1,1,2,2,0,1,1,2300,2778,0,0.767441860465116
"1604",16,2,44,0,0,1,1,1,2,2,0,1,1,2400,3594,0,0.772727272727273
"1605",16,2,45,1,0,0,1,0,2,4,0,1,0,2300,2340,1,0.755555555555556
"1606",16,2,46,0,1,0,0,0,1,1,0,0,1,2400,1151,0,0.760869565217391
"1607",16,2,47,1,1,1,0,0,3,3,1,0,1,2500,3689,1,0.765957446808511
"1608",16,2,48,0,0,0,0,1,1,1,0,0,1,2600,839,0,0.770833333333333
"1609",16,2,49,1,0,1,0,1,3,3,1,0,1,2700,2230,1,0.775510204081633
"1610",16,2,50,1,0,0,1,1,2,2,0,1,1,2800,1630,0,0.78
"1611",16,2,51,0,1,0,1,1,2,2,0,1,1,2900,1037,0,0.784313725490196
"1612",16,2,52,1,1,0,0,1,1,1,0,0,1,3000,1124,0,0.788461538461538
"1613",16,2,53,0,1,1,1,1,2,2,0,1,1,3100,1488,0,0.792452830188679
"1614",16,2,54,1,1,0,0,0,1,1,0,0,1,3200,1301,0,0.796296296296296
"1615",16,2,55,0,0,0,1,0,2,2,0,1,1,3300,866,0,0.8
"1616",16,2,56,0,1,1,0,1,1,1,0,0,1,3400,1056,0,0.803571428571429
"1617",16,2,57,0,0,0,0,1,1,1,0,0,1,3500,1270,0,0.807017543859649
"1618",16,2,58,0,1,0,0,1,1,1,0,0,1,3600,739,0,0.810344827586207
"1619",16,2,59,1,1,1,1,1,4,4,1,1,1,3700,2199,1,0.813559322033898
"1620",16,2,60,1,0,0,0,1,1,1,0,0,1,3800,1239,0,0.816666666666667
"1621",16,2,61,1,0,1,0,0,3,3,1,0,1,3900,2222,1,0.819672131147541
"1622",16,2,62,1,0,0,0,1,1,1,0,0,1,4000,1294,0,0.82258064516129
"1623",16,2,63,1,1,1,1,0,4,4,1,1,1,4100,3035,1,0.825396825396825
"1624",16,2,64,0,0,1,0,1,1,1,0,0,1,4200,2233,0,0.828125
"1625",16,3,65,1,1,0,1,1,2,2,0,1,1,4300,2184,0,0.830769230769231
"1626",16,3,66,1,1,1,1,1,4,4,1,1,1,4400,2522,1,0.833333333333333
"1627",16,3,67,0,0,1,1,0,2,2,0,1,1,4500,2820,0,0.835820895522388
"1628",16,3,68,1,0,1,0,1,3,3,1,0,1,4600,2179,1,0.838235294117647
"1629",16,3,69,0,1,1,0,0,1,1,0,0,1,4700,2910,0,0.840579710144927
"1630",16,3,70,0,1,0,1,1,2,2,0,1,1,4800,1578,0,0.842857142857143
"1631",16,3,71,0,1,1,1,1,2,2,0,1,1,4900,3755,0,0.845070422535211
"1632",16,3,72,1,1,1,0,1,3,3,1,0,1,5000,2566,1,0.847222222222222
"1633",16,3,73,0,0,0,1,0,2,2,0,1,1,5100,2120,0,0.849315068493151
"1634",16,3,74,1,1,0,1,0,2,2,0,1,1,5200,3067,0,0.851351351351351
"1635",16,3,75,0,0,1,0,0,1,1,0,0,1,5300,1571,0,0.853333333333333
"1636",16,3,76,0,0,0,1,1,2,2,0,1,1,5400,1891,0,0.855263157894737
"1637",16,3,77,1,1,1,1,0,4,4,1,1,1,5500,4176,1,0.857142857142857
"1638",16,3,78,1,1,0,1,1,2,2,0,1,1,5600,2506,0,0.858974358974359
"1639",16,3,79,0,1,0,0,0,1,1,0,0,1,5700,1141,0,0.860759493670886
"1640",16,3,80,0,1,1,0,1,1,1,0,0,1,5800,1344,0,0.8625
